File: Fig 1/Fig 1_RRDE-an-Fe2O3_5mvs_ring.mpt
mode	ox/red	error	control changes	counter inc.	time/s	control/V	Ewe/V	<I>/mA	cycle number	(Q-Qo)/C	I Range	step time/s	P/W
2	1	0	0	0	0.000000000000000E+000	-0.300383	-0.300712	0.260294	1	0.0000000E+000	40	0.000000000000000E+000	-7.82735e-05
2	1	0	1	0	1.3498	-0.307132	-0.30749	0.028685	1	6.85134e-05	41	1.2398	-8.82034e-06
2	1	0	0	0	2.7496	-0.314131	-0.314461	0.0187912	1	0.000100783	41	2.6396	-5.90908e-06
2	1	0	1	0	4.1494	-0.32113	-0.32148	0.0137831	1	0.000123051	41	4.0394	-4.43099e-06
2	1	0	0	0	5.5492	-0.328129	-0.328466	0.0110967	1	0.000140103	41	5.4392	-3.64489e-06
2	1	0	1	0	6.949	-0.335128	-0.335456	0.00949514	1	0.000154264	41	6.839	-3.1852e-06
2	1	0	0	0	8.3488	-0.342127	-0.342447	0.0084123	1	0.000166596	41	8.2388	-2.88076e-06
2	1	0	1	0	9.7485	-0.349125	-0.349447	0.00765175	1	0.00017767	41	9.6385	-2.67388e-06
2	1	0	1	0	11.1482	-0.356124	-0.35641	0.00705575	1	0.000187838	41	11.0382	-2.51474e-06
2	1	0	0	0	12.548	-0.363123	-0.363411	0.00658613	1	0.000197231	41	12.438	-2.39347e-06
2	1	0	1	0	13.9478	-0.370122	-0.370455	0.00612936	1	0.000205991	41	13.8378	-2.27065e-06
2	1	0	0	0	15.3476	-0.377121	-0.377408	0.00580441	1	0.000214226	41	15.2376	-2.19063e-06
2	1	0	1	0	16.7474	-0.38412	-0.384422	0.00552455	1	0.000222027	41	16.6374	-2.12376e-06
2	1	0	0	0	18.1472	-0.391119	-0.391395	0.00523275	1	0.000229435	41	18.0372	-2.04807e-06
2	1	0	1	0	19.547	-0.398118	-0.398405	0.00499141	1	0.000236494	41	19.437	-1.9886e-06
2	1	0	0	0	20.9468	-0.405116	-0.405401	0.00475105	1	0.000243243	41	20.8368	-1.92608e-06
2	1	0	1	0	22.3665	-0.412216	-0.412491	0.0045923	1	0.000249763	42	22.2565	-1.89428e-06
2	1	0	1	0	23.7662	-0.419214	-0.419507	0.00443074	1	0.000255969	42	23.6562	-1.85873e-06
2	1	0	0	0	25.166	-0.426213	-0.42652	0.00425105	1	0.000261939	42	25.056	-1.81316e-06
2	1	0	1	0	26.5658	-0.433212	-0.43352	0.00408621	1	0.000267667	42	26.4558	-1.77145e-06
2	1	0	0	0	27.9656	-0.440211	-0.440494	0.00392297	1	0.000273188	42	27.8556	-1.72805e-06
2	1	0	1	0	29.3654	-0.44721	-0.447523	0.00380275	1	0.000278513	42	29.2554	-1.70181e-06
2	1	0	0	0	30.7652	-0.454209	-0.454488	0.00368196	1	0.000283669	42	30.6552	-1.67341e-06
2	1	0	1	0	32.165	-0.461207	-0.461481	0.00354307	1	0.000288645	42	32.055	-1.63506e-06
2	1	0	1	0	33.5647	-0.468206	-0.468505	0.00343983	1	0.000293447	42	33.4547	-1.61157e-06
2	1	0	0	0	34.9644	-0.475205	-0.475504	0.00330699	1	0.000298077	42	34.8544	-1.57248e-06
2	1	0	1	0	36.3642	-0.482204	-0.482491	0.00321837	1	0.000302557	42	36.2542	-1.55284e-06
2	1	0	0	0	37.764	-0.489203	-0.489465	0.00311544	1	0.000306887	42	37.654	-1.5249e-06
2	1	0	1	0	39.1638	-0.496202	-0.496479	0.00302934	1	0.000311061	42	39.0538	-1.504e-06
2	1	0	0	0	40.5636	-0.503201	-0.503491	0.00295628	1	0.000315115	42	40.4536	-1.48846e-06
2	1	0	1	0	41.9634	-0.5102	-0.510469	0.002864	1	0.000319055	42	41.8534	-1.46198e-06
2	1	0	0	0	43.3632	-0.517199	-0.517466	0.00279926	1	0.000322857	42	43.2532	-1.44852e-06
2	1	0	1	0	44.7629	-0.524197	-0.524466	0.00269558	1	0.000326545	42	44.6529	-1.41374e-06
2	1	0	1	0	46.1626	-0.531196	-0.531477	0.002623	1	0.000330112	42	46.0526	-1.39406e-06
2	1	0	0	0	47.5624	-0.538195	-0.538451	0.00253727	1	0.000333573	42	47.4524	-1.3662e-06
2	1	0	1	0	48.9622	-0.545194	-0.545476	0.00246262	1	0.000336919	42	48.8522	-1.3433e-06
2	1	0	0	0	50.362	-0.552193	-0.552485	0.00238363	1	0.000340158	42	50.252	-1.31692e-06
2	1	0	1	0	51.7618	-0.559192	-0.55946	0.00228555	1	0.000343283	42	51.6518	-1.27867e-06
2	1	0	0	0	53.1616	-0.566191	-0.566473	0.00221111	1	0.000346297	42	53.0516	-1.25253e-06
2	1	0	1	0	54.5614	-0.57319	-0.573483	0.00212298	1	0.000349196	42	54.4514	-1.21749e-06
2	1	0	0	0	55.9612	-0.580188	-0.580475	0.00204502	1	0.000352007	42	55.8512	-1.18708e-06
2	1	0	1	0	57.3609	-0.587187	-0.587448	0.00194168	1	0.00035471	42	57.2509	-1.14064e-06
2	1	0	1	0	58.7606	-0.594186	-0.594449	0.00186984	1	0.000357307	42	58.6506	-1.11153e-06
2	1	0	0	0	60.1604	-0.601185	-0.60147	0.00179306	1	0.000359811	42	60.0504	-1.07847e-06
2	1	0	1	0	61.5602	-0.608184	-0.608473	0.00173974	1	0.000362216	42	61.4502	-1.05859e-06
2	1	0	0	0	62.96	-0.615183	-0.615471	0.00167992	1	0.000364546	42	62.85	-1.03394e-06
2	1	0	1	0	64.3598	-0.622182	-0.622438	0.00160396	1	0.00036677	42	64.2498	-9.98364e-07
2	1	0	0	0	65.7596	-0.629181	-0.629463	0.00152845	1	0.000368888	42	65.6496	-9.62106e-07
2	1	0	1	0	67.1594	-0.63618	-0.636464	0.00144441	1	0.000370913	42	67.0494	-9.19315e-07
2	1	0	1	0	68.5591	-0.643178	-0.64346	0.00138373	1	0.000372828	42	68.4491	-8.90377e-07
2	1	0	0	0	69.9588	-0.650177	-0.650457	0.00132251	1	0.000374643	42	69.8488	-8.60236e-07
2	1	0	1	0	71.3586	-0.657176	-0.657469	0.00125475	1	0.000376359	42	71.2486	-8.2496e-07
2	1	0	0	0	72.7584	-0.664175	-0.664464	0.00118079	1	0.000377965	42	72.6484	-7.84594e-07
2	1	0	1	0	74.1582	-0.671174	-0.671434	0.00110666	1	0.000379457	42	74.0482	-7.4305e-07
2	1	0	0	0	75.558	-0.678173	-0.67845	0.00102077	1	0.000380844	42	75.448	-6.92541e-07
2	1	0	1	0	76.9578	-0.685172	-0.685426	0.000967095	1	0.000382114	42	76.8478	-6.62872e-07
2	1	0	0	0	78.3576	-0.692171	-0.692444	0.000888409	1	0.000383279	42	78.2476	-6.15174e-07
2	1	0	1	0	79.7573	-0.699169	-0.699444	0.000808621	1	0.000384326	42	79.6473	-5.65585e-07
2	1	0	1	0	81.1571	-0.706169	-0.706449	0.000737105	1	0.000385249	42	81.0471	-5.20727e-07
2	1	0	0	0	82.5568	-0.713167	-0.713449	0.000662973	1	0.000386065	42	82.4468	-4.72998e-07
2	1	0	1	0	83.9566	-0.720166	-0.720448	0.000589331	1	0.00038677	42	83.8466	-4.24582e-07
2	1	0	0	0	85.3564	-0.727165	-0.727433	0.000509545	1	0.000387347	42	85.2464	-3.7066e-07
2	1	0	1	0	86.7562	-0.734164	-0.734424	0.00041919	1	0.000387807	42	86.6462	-3.07863e-07
2	1	0	0	0	88.156	-0.741163	-0.741434	0.000332281	1	0.000388149	42	88.046	-2.46364e-07
2	1	0	1	0	89.5558	-0.748162	-0.748414	0.000249432	1	0.000388354	42	89.4458	-1.86679e-07
2	1	0	0	0	90.9556	-0.755161	-0.75543	0.000136211	1	0.000388443	42	90.8456	-1.02898e-07
2	1	0	1	0	92.3553	-0.76216	-0.762425	5.50777e-05	1	0.000388399	42	1.1999	-4.19926e-08
2	0	0	1	0	93.755	-0.769158	-0.769398	-5.15565e-05	1	0.000388229	42	2.5996	3.96675e-08
2	0	0	0	0	95.1548	-0.776157	-0.776398	-0.000139057	1	0.000387917	42	3.9994	1.07963e-07
2	0	0	1	0	96.5546	-0.783156	-0.78338	-0.00025705	1	0.000387473	42	5.3992	2.01368e-07
2	0	0	0	0	97.9544	-0.790155	-0.790411	-0.000353493	1	0.000386885	42	6.799	2.79405e-07
2	0	0	1	0	99.3542	-0.797154	-0.797385	-0.000465533	1	0.000386155	42	8.1988	3.71209e-07
2	0	0	0	0	100.754	-0.804153	-0.804416	-0.000570039	1	0.000385285	42	9.5986	4.58548e-07
2	0	0	1	0	102.154	-0.811152	-0.811425	-0.000675707	1	0.000384273	42	10.9984	5.48285e-07
2	0	0	1	0	103.553	-0.81815	-0.818393	-0.000777992	1	0.000383125	42	12.3981	6.36703e-07
2	0	0	1	0	104.953	-0.82515	-0.825383	-0.000884714	1	0.000381841	42	13.7979	7.30228e-07
2	0	0	1	0	106.353	-0.832148	-0.832382	-0.000995087	1	0.000380419	42	15.1976	8.28293e-07
2	0	0	0	0	107.753	-0.839147	-0.839422	-0.00109348	1	0.00037886	42	16.5974	9.1789e-07
2	0	0	1	0	109.153	-0.846146	-0.846409	-0.00119916	1	0.000377173	42	17.9972	1.01498e-06
2	0	0	0	0	110.552	-0.853145	-0.85342	-0.00129126	1	0.00037535	42	19.397	1.10199e-06
2	0	0	1	0	111.952	-0.860144	-0.860412	-0.00139084	1	0.000373407	42	20.7968	1.19669e-06
2	0	0	0	0	113.352	-0.867143	-0.867393	-0.00147349	1	0.000371342	42	22.1966	1.27809e-06
2	0	0	1	0	114.752	-0.874142	-0.874397	-0.00156352	1	0.000369153	42	23.5964	1.36713e-06
2	0	0	1	0	116.151	-0.88114	-0.881364	-0.00162272	1	0.000366847	42	24.9961	1.43021e-06
2	0	0	0	0	117.551	-0.888139	-0.888412	-0.00170722	1	0.000364422	42	26.3958	1.51671e-06
2	0	0	1	0	118.951	-0.895138	-0.895368	-0.0017801	1	0.000361876	42	27.7956	1.59385e-06
2	0	0	0	0	120.351	-0.902137	-0.902371	-0.00185539	1	0.000359206	42	29.1954	1.67425e-06
2	0	0	1	0	121.751	-0.909136	-0.909377	-0.00194629	1	0.000356392	42	30.5952	1.76991e-06
2	0	0	0	0	123.15	-0.916135	-0.916377	-0.00204588	1	0.000353428	42	31.995	1.8748e-06
2	0	0	1	0	124.55	-0.923134	-0.923381	-0.00216639	1	0.000350286	42	33.3948	2.0004e-06
2	0	0	0	0	125.95	-0.930133	-0.930366	-0.00231489	1	0.00034694	42	34.7946	2.15369e-06
2	0	0	1	0	127.35	-0.937131	-0.937386	-0.00249383	1	0.00034336	42	36.1943	2.33769e-06
2	0	0	1	0	128.749	-0.94413	-0.944379	-0.00272219	1	0.0003395	42	37.594	2.57078e-06
2	0	0	0	0	130.149	-0.951129	-0.951353	-0.00297893	1	0.000335304	42	38.9938	2.83401e-06
2	0	0	1	0	131.549	-0.958128	-0.958373	-0.00327811	1	0.000330739	42	40.3936	3.14165e-06
2	0	0	0	0	132.949	-0.965127	-0.965357	-0.00361416	1	0.00032575	42	41.7934	3.48895e-06
2	0	0	1	0	134.349	-0.972126	-0.972393	-0.00399345	1	0.00032029	42	43.1932	3.88321e-06
2	0	0	0	0	135.748	-0.979125	-0.979361	-0.00435949	1	0.000314347	42	44.593	4.26951e-06
2	0	0	1	0	137.148	-0.986124	-0.986385	-0.00472893	1	0.0003079	42	45.9928	4.66454e-06
2	0	0	1	0	138.548	-0.993122	-0.993375	-0.00511296	1	0.000300934	42	47.3925	5.07909e-06
2	0	0	1	0	139.948	-1.00012	-1.00039	-0.00551324	1	0.000293437	42	48.7923	5.51538e-06
2	0	0	1	0	141.347	-1.00712	-1.00737	-0.00591496	1	0.000285383	42	50.192	5.95853e-06
2	0	0	0	0	142.747	-1.01412	-1.01437	-0.00634262	1	0.000276734	42	51.5918	6.43373e-06
2	0	0	1	0	144.147	-1.02112	-1.02138	-0.00677063	1	0.000267481	42	52.9916	6.91541e-06
2	0	0	0	0	145.547	-1.02812	-1.02837	-0.00724555	1	0.000257587	42	54.3914	7.45112e-06
2	0	0	1	0	146.947	-1.03512	-1.03539	-0.00772571	1	0.000247004	42	55.7912	7.99913e-06
2	0	0	0	0	148.346	-1.04211	-1.04238	-0.0082351	1	0.0002357	42	57.191	8.58409e-06
2	0	0	1	0	149.756	-1.04916	-1.04944	-0.00860384	1	0.00022357	42	58.6008	9.02919e-06
2	0	0	1	0	151.166	-1.05621	-1.05647	-0.00919609	1	0.000210779	41	60.0105	9.71535e-06
2	0	0	0	0	152.566	-1.06321	-1.06346	-0.00970219	1	0.000197396	41	61.4102	1.03179e-05
2	0	0	1	0	153.965	-1.07021	-1.07047	-0.0102202	1	0.000183287	41	62.81	1.09405e-05
2	0	0	0	0	155.365	-1.07721	-1.07746	-0.0107707	1	0.000168399	41	64.2098	1.16049e-05
2	0	0	1	0	156.765	-1.08421	-1.08447	-0.0113658	1	0.000152718	41	65.6096	1.23258e-05
2	0	0	0	0	158.165	-1.09121	-1.09144	-0.0119993	1	0.000136141	41	67.0094	1.30966e-05
2	0	0	1	0	159.565	-1.09821	-1.09847	-0.0127139	1	0.00011862	41	68.4092	1.39657e-05
2	0	0	0	0	160.964	-1.1052	-1.10544	-0.0134765	1	0.000100061	41	69.809	1.48975e-05
2	0	0	1	0	162.364	-1.1122	-1.11246	-0.0143959	1	8.02793e-05	41	71.2087	1.60148e-05
2	0	0	1	0	163.764	-1.1192	-1.11943	-0.0153551	1	5.92424e-05	41	72.6084	1.71889e-05
2	0	0	0	0	165.164	-1.1262	-1.12643	-0.0166391	1	3.66815e-05	41	74.0082	1.87428e-05
2	0	0	1	0	166.563	-1.1332	-1.13345	-0.0207458	1	1.08933e-05	41	75.408	2.35143e-05
2	0	0	0	0	167.963	-1.1402	-1.14042	-0.0332039	1	-2.60462e-05	41	76.8078	3.78665e-05
2	0	0	1	0	169.363	-1.1472	-1.14746	-0.0503829	1	-8.44003e-05	41	78.2076	5.78122e-05
2	0	0	0	0	170.763	-1.1542	-1.15443	-0.0617116	1	-0.000163864	41	79.6074	7.12419e-05
2	0	0	1	0	172.163	-1.1612	-1.16142	-0.0759753	1	-0.000258797	41	81.0072	8.82388e-05
2	0	0	1	0	173.572	-1.16824	-1.1685	-0.109381	1	-0.000388357	41	82.4169	0.000127812
2	0	0	0	0	174.982	-1.17529	-1.17554	-0.141464	1	-0.00056787	40	83.8266	0.000166296
2	0	0	1	0	176.382	-1.18229	-1.18255	-0.151293	1	-0.000775497	40	85.2264	0.000178911
2	0	0	0	0	177.782	-1.18929	-1.18954	-0.152925	1	-0.000988025	40	86.6262	0.000181911
2	0	0	1	0	179.181	-1.19629	-1.19654	-0.155138	1	-0.00120296	40	88.026	0.000185629
2	0	0	0	0	180.581	-1.20329	-1.20353	-0.17071	1	-0.00143111	40	89.4258	0.000205455
2	0	0	1	0	181.981	-1.21029	-1.21054	-0.195586	1	-0.00168596	40	90.8256	0.000236764
2	0	0	0	0	183.381	-1.21729	-1.21752	-0.21844	1	-0.00197564	40	92.2254	0.000265955
2	0	0	1	0	184.781	-1.22429	-1.22455	-0.252085	1	-0.00230489	40	93.6252	0.000308691
2	0	0	1	0	186.18	-1.23128	-1.23156	-0.298002	1	-0.00269002	40	95.0249	0.000367007
2	0	0	0	0	187.58	-1.23828	-1.23853	-0.35411	1	-0.00314617	40	96.4246	0.000438577
2	0	0	1	0	188.98	-1.24528	-1.24557	-0.42622	1	-0.00369298	40	97.8244	0.000530885
2	0	0	0	0	190.38	-1.25228	-1.25253	-0.517318	1	-0.00435131	40	99.2242	0.000647955
2	0	0	1	0	191.779	-1.25928	-1.25957	-0.642631	1	-0.00516052	40	100.624	0.000809441
2	0	0	0	0	193.179	-1.26628	-1.26654	-0.809919	1	-0.00617465	40	102.024	0.00102579
2	0	0	1	0	194.579	-1.27328	-1.27355	-1.0307	1	-0.00745764	40	103.424	0.00131265
2	0	0	1	0	196.019	-1.28048	-1.28073	-1.31667	1	-0.00914178	39	104.863	0.0016863
2	0	0	1	0	197.418	-1.28748	-1.28772	-1.57949	1	-0.0111737	39	106.263	0.00203395
2	0	0	1	0	198.818	-1.29447	-1.29474	-1.81638	1	-0.013564	39	107.663	0.00235174
2	0	0	1	1	200.038	-1.29947	-1.29972	-1.92376	2	-0.0158759	39	108.883	0.00250035
2	0	0	1	1	201.438	-1.29247	-1.29271	-1.65573	2	-0.0183612	39	110.283	0.00214038
2	0	0	0	1	202.838	-1.28548	-1.28571	-1.49378	2	-0.0205523	39	111.683	0.00192056
2	0	0	1	1	204.238	-1.27848	-1.27869	-1.36722	2	-0.0225451	39	113.082	0.00174825
2	0	0	0	1	205.638	-1.27148	-1.27172	-1.2806	2	-0.0243921	39	114.482	0.00162856
2	0	0	1	1	207.037	-1.26448	-1.26473	-1.2069	2	-0.02613	39	115.882	0.0015264
2	0	0	0	1	208.437	-1.25748	-1.25771	-1.13148	2	-0.0277635	39	117.282	0.00142307
2	0	0	1	1	209.837	-1.25048	-1.25071	-1.07695	2	-0.0293044	39	118.682	0.00134695
2	0	0	1	1	211.237	-1.24348	-1.24373	-1.02393	2	-0.0307718	39	120.081	0.00127349
2	0	0	1	1	212.636	-1.23648	-1.23671	-0.973735	2	-0.0321679	39	121.481	0.00120423
2	0	0	1	1	214.036	-1.22948	-1.22974	-0.918937	2	-0.033492	39	122.881	0.00113005
2	0	0	0	1	215.436	-1.22249	-1.22272	-0.873941	2	-0.0347452	39	124.281	0.00106858
2	0	0	1	1	216.836	-1.21549	-1.21575	-0.826343	2	-0.0359337	39	125.68	0.00100463
2	0	0	0	1	218.236	-1.20849	-1.20872	-0.78082	2	-0.0370596	39	127.08	0.000943797
2	0	0	1	1	219.635	-1.20149	-1.20174	-0.733863	2	-0.0381172	39	128.48	0.000881915
2	0	0	0	1	221.035	-1.19449	-1.19474	-0.688012	2	-0.0391128	39	129.88	0.000821993
2	0	0	1	1	222.435	-1.18749	-1.18772	-0.641617	2	-0.040042	39	131.28	0.000762062
2	0	0	1	1	223.835	-1.18049	-1.18072	-0.592424	2	-0.0409038	39	132.679	0.000699488
2	0	0	0	1	225.234	-1.17349	-1.17373	-0.543476	2	-0.0416978	39	134.079	0.000637896
2	0	0	1	1	226.634	-1.16649	-1.16674	-0.495307	2	-0.0424234	39	135.479	0.000577896
2	0	0	0	1	228.054	-1.1594	-1.15964	-0.447612	2	-0.0430914	39	136.899	0.000519067
2	0	0	1	1	229.474	-1.1523	-1.15253	-0.400179	2	-0.0436926	40	138.318	0.000461216
2	0	0	0	1	230.874	-1.1453	-1.14554	-0.359527	2	-0.0442262	40	139.718	0.000411852
2	0	0	1	1	232.273	-1.1383	-1.13855	-0.312491	2	-0.0446942	40	141.118	0.000355787
2	0	0	0	1	233.673	-1.1313	-1.13153	-0.272149	2	-0.0451022	40	142.518	0.000307945
2	0	0	1	1	235.073	-1.1243	-1.12455	-0.235785	2	-0.0454568	40	143.917	0.00026515
2	0	0	1	1	236.473	-1.1173	-1.11754	-0.20262	2	-0.0457624	40	145.317	0.000226437
2	0	0	0	1	237.872	-1.1103	-1.11053	-0.173996	2	-0.0460251	40	146.717	0.000193228
2	0	0	1	1	239.272	-1.1033	-1.10354	-0.148601	2	-0.0462498	40	148.117	0.000163987
2	0	0	0	1	240.672	-1.09631	-1.09655	-0.126098	2	-0.0464412	40	149.517	0.000138272
2	0	0	1	1	242.072	-1.08931	-1.08957	-0.107156	2	-0.0466036	40	150.916	0.000116754
2	0	0	0	1	243.472	-1.08231	-1.08255	-0.0904076	2	-0.046741	40	152.316	9.78709e-05
2	0	0	1	1	244.871	-1.07531	-1.07555	-0.0761034	2	-0.0468568	40	153.716	8.18531e-05
2	0	0	1	1	246.271	-1.06831	-1.06855	-0.063885	2	-0.0469538	40	155.116	6.82642e-05
2	0	0	0	1	247.671	-1.06131	-1.06156	-0.0534479	2	-0.0470352	40	156.515	5.67382e-05
2	0	0	1	1	249.091	-1.05421	-1.05446	-0.0443799	2	-0.0471038	40	157.935	4.67968e-05
2	0	0	0	1	250.51	-1.04711	-1.04738	-0.0364697	2	-0.0471607	41	159.355	3.81978e-05
2	0	0	1	1	251.91	-1.04011	-1.0404	-0.0296729	2	-0.0472063	41	160.755	3.08716e-05
2	0	0	0	1	253.31	-1.03312	-1.03337	-0.0237276	2	-0.047243	41	162.155	2.45193e-05
2	0	0	1	1	254.71	-1.02612	-1.02638	-0.0185598	2	-0.0472719	41	163.554	1.90494e-05
2	0	0	0	1	256.11	-1.01912	-1.01935	-0.0140922	2	-0.0472941	41	164.954	1.43649e-05
2	0	0	1	1	257.509	-1.01212	-1.01238	-0.0101048	2	-0.0473104	41	166.354	1.02298e-05
2	0	0	1	1	258.909	-1.00512	-1.00538	-0.00622226	2	-0.0473214	41	167.754	6.25574e-06
2	0	0	0	1	260.309	-0.998122	-0.998361	-0.00229461	2	-0.047327	41	169.153	2.29085e-06
2	1	0	1	1	261.709	-0.991123	-0.991388	0.0019481	2	-0.0473269	41	0.5998	-1.93133e-06
2	1	0	0	1	263.108	-0.984124	-0.984368	0.00673544	2	-0.0473206	41	1.9996	-6.63015e-06
2	1	0	1	1	264.508	-0.977125	-0.977355	0.0122774	2	-0.0473071	41	3.3994	-1.19994e-05
2	1	0	0	1	265.908	-0.970126	-0.970371	0.0185805	2	-0.0472853	41	4.7992	-1.803e-05
2	1	0	1	1	267.308	-0.963127	-0.963373	0.0256171	2	-0.0472541	41	6.199	-2.46788e-05
2	1	0	1	1	268.707	-0.956129	-0.95637	0.0331264	2	-0.0472127	41	7.5987	-3.16811e-05
2	1	0	0	1	270.107	-0.94913	-0.949408	0.0405449	2	-0.0471608	41	8.9984	-3.84937e-05
2	1	0	1	1	271.507	-0.942131	-0.9424	0.0476243	2	-0.0470986	41	10.3982	-4.48811e-05
2	1	0	0	1	272.907	-0.935132	-0.935377	0.0541128	2	-0.0470269	41	11.798	-5.06158e-05
2	1	0	1	1	274.307	-0.928133	-0.928406	0.059767	2	-0.0469467	41	13.1978	-5.54881e-05
2	1	0	0	1	275.706	-0.921134	-0.921397	0.0647773	2	-0.046859	41	14.5976	-5.96856e-05
2	1	0	1	1	277.106	-0.914135	-0.914375	0.0691573	2	-0.0467649	41	15.9974	-6.32357e-05
2	1	0	0	1	278.506	-0.907136	-0.907391	0.0727214	2	-0.0466651	41	17.3972	-6.59867e-05
2	1	0	1	1	279.906	-0.900137	-0.900375	0.0744967	2	-0.0465615	41	18.797	-6.7075e-05
2	1	0	1	1	281.305	-0.893138	-0.893417	0.072969	2	-0.0464576	41	20.1967	-6.51917e-05
2	1	0	0	1	282.705	-0.88614	-0.886411	0.0665094	2	-0.0463592	41	21.5964	-5.89547e-05
2	1	0	1	1	284.105	-0.879141	-0.879409	0.0553225	2	-0.0462734	41	22.9962	-4.8651e-05
2	1	0	0	1	285.505	-0.872142	-0.87243	0.0426037	2	-0.0462048	41	24.396	-3.71688e-05
2	1	0	1	1	286.905	-0.865143	-0.865403	0.0316611	2	-0.046153	41	25.7958	-2.73997e-05
2	1	0	0	1	288.304	-0.858144	-0.858402	0.0239036	2	-0.0461143	41	27.1956	-2.05189e-05
2	1	0	1	1	289.704	-0.851145	-0.851406	0.018969	2	-0.0460844	41	28.5954	-1.61503e-05
2	1	0	0	1	291.104	-0.844146	-0.844423	0.0157804	2	-0.04606	41	29.9952	-1.33253e-05
2	1	0	1	1	292.504	-0.837148	-0.837429	0.0135434	2	-0.0460393	41	31.3949	-1.13417e-05
2	1	0	1	1	293.903	-0.830149	-0.83041	0.0121322	2	-0.0460212	41	32.7946	-1.00747e-05
2	1	0	0	1	295.303	-0.82315	-0.823397	0.0111253	2	-0.0460047	41	34.1944	-9.16052e-06
2	1	0	1	1	296.703	-0.816151	-0.816411	0.0105775	2	-0.0459894	41	35.5942	-8.63557e-06
2	1	0	0	1	298.103	-0.809152	-0.809408	0.0101962	2	-0.0459746	41	36.994	-8.25286e-06
2	1	0	1	1	299.503	-0.802153	-0.8024	0.0100265	2	-0.0459603	41	38.3938	-8.04523e-06
2	1	0	0	1	300.902	-0.795154	-0.795427	0.00983937	2	-0.0459463	41	39.7936	-7.8265e-06
2	1	0	1	1	302.302	-0.788155	-0.788443	0.00959726	2	-0.0459325	41	41.1934	-7.56689e-06
2	1	0	0	1	303.702	-0.781156	-0.781426	0.00929123	2	-0.0459192	41	42.5932	-7.26041e-06
2	1	0	1	1	305.102	-0.774157	-0.774422	0.00885087	2	-0.0459063	41	43.9929	-6.85431e-06
2	1	0	1	1	306.501	-0.767159	-0.767416	0.00832822	2	-0.0458942	41	45.3926	-6.39121e-06
2	1	0	0	1	307.901	-0.76016	-0.760414	0.00781263	2	-0.0458828	41	46.7924	-5.94084e-06
2	1	0	1	1	309.301	-0.753161	-0.7534	0.00720892	2	-0.0458721	41	48.1922	-5.4312e-06
2	1	0	0	1	310.701	-0.746162	-0.746424	0.00662199	2	-0.0458623	41	49.592	-4.94282e-06
2	1	0	1	1	312.101	-0.739163	-0.739394	0.00616129	2	-0.0458532	41	50.9918	-4.55562e-06
2	1	0	0	1	313.5	-0.732164	-0.732441	0.00577438	2	-0.0458447	41	52.3916	-4.22939e-06
2	1	0	1	1	314.9	-0.725165	-0.725426	0.00534897	2	-0.0458367	41	53.7914	-3.88028e-06
2	1	0	1	1	316.3	-0.718167	-0.718429	0.00502211	2	-0.0458292	41	55.1911	-3.60803e-06
2	1	0	0	1	317.7	-0.711168	-0.711411	0.00479392	2	-0.0458221	41	56.5908	-3.41045e-06
2	1	0	1	1	319.099	-0.704169	-0.704439	0.00447714	2	-0.0458155	41	57.9906	-3.15387e-06
2	1	0	0	1	320.499	-0.69717	-0.697443	0.00435415	2	-0.0458091	41	59.3904	-3.03677e-06
2	1	0	1	1	321.939	-0.689971	-0.690231	0.00417618	2	-0.0458028	42	60.8302	-2.88253e-06
2	1	0	0	1	323.339	-0.682972	-0.683238	0.00393303	2	-0.045797	42	62.23	-2.6872e-06
2	1	0	1	1	324.739	-0.675973	-0.676207	0.00379183	2	-0.0457914	42	63.6298	-2.56406e-06
2	1	0	0	1	326.138	-0.668974	-0.669219	0.00361457	2	-0.0457861	42	65.0296	-2.41894e-06
2	1	0	1	1	327.538	-0.661976	-0.662227	0.00351814	2	-0.045781	42	66.4293	-2.32981e-06
2	1	0	1	1	328.938	-0.654976	-0.655229	0.00339945	2	-0.045776	42	67.8291	-2.22742e-06
2	1	0	0	1	330.338	-0.647978	-0.648248	0.00334023	2	-0.0457713	42	69.2288	-2.1653e-06
2	1	0	1	1	331.737	-0.640979	-0.64123	0.00317786	2	-0.0457666	42	70.6286	-2.03774e-06
2	1	0	0	1	333.137	-0.63398	-0.634213	0.003092	2	-0.0457622	42	72.0284	-1.96099e-06
2	1	0	1	1	334.537	-0.626981	-0.627245	0.00296888	2	-0.0457578	42	73.4282	-1.86222e-06
2	1	0	0	1	335.937	-0.619982	-0.620222	0.00287401	2	-0.0457536	42	74.828	-1.78252e-06
2	1	0	1	1	337.337	-0.612983	-0.613233	0.00270171	2	-0.0457497	42	76.2278	-1.65678e-06
2	1	0	0	1	338.736	-0.605984	-0.606248	0.00260303	2	-0.0457458	42	77.6276	-1.57808e-06
2	1	0	1	1	340.136	-0.598985	-0.599211	0.00252221	2	-0.0457421	42	79.0273	-1.51134e-06
2	1	0	1	1	341.536	-0.591987	-0.592233	0.00243868	2	-0.0457385	42	80.427	-1.44427e-06
2	1	0	0	1	342.936	-0.584988	-0.585248	0.00232054	2	-0.045735	42	81.8268	-1.35809e-06
2	1	0	1	1	344.335	-0.577989	-0.578231	0.00227393	2	-0.0457317	42	83.2266	-1.31486e-06
2	1	0	0	1	345.735	-0.57099	-0.571258	0.0022012	2	-0.0457284	42	84.6264	-1.25745e-06
2	1	0	1	1	347.135	-0.563991	-0.564249	0.00216829	2	-0.0457252	42	86.0262	-1.22345e-06
2	1	0	0	1	348.535	-0.556992	-0.557234	0.00211456	2	-0.045722	42	87.426	-1.1783e-06
2	1	0	1	1	349.935	-0.549993	-0.550248	0.00207215	2	-0.045719	42	88.8258	-1.14019e-06
2	1	0	1	1	351.334	-0.542995	-0.54323	0.00204776	2	-0.045716	42	90.2255	-1.1124e-06
2	1	0	0	1	352.734	-0.535995	-0.53626	0.00198493	2	-0.0457131	42	91.6252	-1.06444e-06
2	1	0	1	1	354.134	-0.528997	-0.529241	0.00195117	2	-0.0457103	42	93.025	-1.03264e-06
2	1	0	0	1	355.534	-0.521998	-0.522235	0.00187888	2	-0.0457076	42	94.4248	-9.81215e-07
2	1	0	1	1	356.933	-0.514999	-0.515236	0.00181832	2	-0.0457049	42	95.8246	-9.36865e-07
2	1	0	0	1	358.333	-0.508	-0.508241	0.00175913	2	-0.0457023	42	97.2244	-8.94064e-07
2	1	0	1	1	359.733	-0.501001	-0.501259	0.00170347	2	-0.0456998	42	98.6242	-8.53881e-07
2	1	0	0	1	361.133	-0.494002	-0.494238	0.0016768	2	-0.0456973	42	100.024	-8.28736e-07
2	1	0	1	1	362.532	-0.487004	-0.487235	0.00158801	2	-0.0456948	42	101.424	-7.73733e-07
2	1	0	1	1	363.932	-0.480004	-0.480209	0.00157893	2	-0.0456924	42	102.823	-7.58218e-07
2	1	0	0	1	365.332	-0.473006	-0.473243	0.00154345	2	-0.0456901	42	104.223	-7.30424e-07
2	1	0	1	1	366.732	-0.466007	-0.466265	0.00151244	2	-0.0456878	42	105.623	-7.05198e-07
2	1	0	0	1	368.132	-0.459008	-0.459261	0.0015139	2	-0.0456856	42	107.023	-6.95273e-07
2	1	0	1	1	369.531	-0.452009	-0.452219	0.0015224	2	-0.0456833	42	108.423	-6.88458e-07
2	1	0	0	1	370.931	-0.44501	-0.445249	0.00147353	2	-0.0456811	42	109.822	-6.56089e-07
2	1	0	1	1	372.331	-0.438011	-0.438234	0.00145272	2	-0.045679	42	111.222	-6.36631e-07
2	1	0	0	1	373.731	-0.431012	-0.431235	0.00144754	2	-0.0456768	42	112.622	-6.24231e-07
2	1	0	1	1	375.13	-0.424013	-0.424252	0.00141108	2	-0.0456748	42	114.022	-5.98653e-07
2	1	0	1	1	376.53	-0.417015	-0.417239	0.00141636	2	-0.0456727	42	115.421	-5.90962e-07
2	1	0	0	1	377.93	-0.410016	-0.410259	0.0013723	2	-0.0456707	42	116.821	-5.62998e-07
2	1	0	1	1	379.33	-0.403017	-0.403233	0.00135191	2	-0.0456687	42	118.221	-5.45132e-07
2	1	0	0	1	380.73	-0.396018	-0.396239	0.00128414	2	-0.0456667	42	119.621	-5.08827e-07
2	1	0	1	1	382.129	-0.389019	-0.389237	0.00123698	2	-0.0456648	42	121.021	-4.8148e-07
2	1	0	0	1	383.529	-0.38202	-0.382241	0.00122224	2	-0.0456629	42	122.42	-4.67191e-07
2	1	0	1	1	384.929	-0.375021	-0.375265	0.00120582	2	-0.045661	42	123.82	-4.52502e-07
2	1	0	1	1	386.329	-0.368023	-0.36825	0.00118715	2	-0.0456592	42	125.22	-4.3717e-07
2	1	0	0	1	387.728	-0.361024	-0.361237	0.00120135	2	-0.0456573	42	126.62	-4.33973e-07
2	1	0	1	1	389.128	-0.354025	-0.354246	0.00117867	2	-0.0456555	42	128.019	-4.17538e-07
2	1	0	0	1	390.528	-0.347026	-0.347262	0.0011752	2	-0.0456537	42	129.419	-4.08103e-07
2	1	0	1	1	391.928	-0.340027	-0.340259	0.00115422	2	-0.045652	42	130.819	-3.92736e-07
2	1	0	0	1	393.328	-0.333028	-0.333264	0.00115664	2	-0.0456502	42	132.219	-3.85466e-07
2	1	0	1	1	394.727	-0.326029	-0.326249	0.00114563	2	-0.0456485	42	133.619	-3.73762e-07
2	1	0	0	1	396.127	-0.31903	-0.319258	0.00113803	2	-0.0456468	42	135.018	-3.63326e-07
2	1	0	1	1	397.527	-0.312032	-0.312272	0.00112681	2	-0.0456451	42	136.418	-3.51871e-07
2	1	0	1	1	398.927	-0.305032	-0.305246	0.00111046	2	-0.0456434	42	137.818	-3.38964e-07
2	1	0	1	1	400.047	-0.300533	-0.300737	0.00106561	2	-0.0456421	42	138.938	-3.20469e-07
2	1	0	0	1	401.447	-0.307532	-0.307757	0.000850201	2	-0.045641	42	140.338	-2.61655e-07
2	1	0	1	1	402.847	-0.314531	-0.314733	0.000756934	2	-0.04564	42	141.738	-2.38232e-07
2	1	0	0	1	404.246	-0.32153	-0.321777	0.000671444	2	-0.0456392	42	143.138	-2.16056e-07
2	1	0	1	1	405.646	-0.328529	-0.328766	0.000605343	2	-0.0456385	42	144.537	-1.99016e-07
2	1	0	0	1	407.046	-0.335528	-0.335748	0.000534683	2	-0.0456379	42	145.937	-1.79519e-07
2	1	0	1	1	408.446	-0.342526	-0.342746	0.000486995	2	-0.0456373	42	147.337	-1.66916e-07
2	0	0	1	1	409.845	-0.349525	-0.349743	0.000422744	2	-0.0456368	42	148.737	-1.47851e-07
2	0	0	0	1	411.245	-0.356524	-0.356754	0.000384528	2	-0.0456364	42	150.136	-1.37182e-07
2	0	0	1	1	412.645	-0.363523	-0.363728	0.000342151	2	-0.045636	42	151.536	-1.2445e-07
2	0	0	0	1	414.045	-0.370522	-0.370761	0.000296823	2	-0.0456357	42	152.936	-1.1005e-07
2	0	0	1	1	415.445	-0.377521	-0.377747	0.000255516	2	-0.0456354	42	154.336	-9.65202e-08
2	0	0	0	1	416.844	-0.38452	-0.384757	0.000224324	2	-0.0456352	42	155.736	-8.63103e-08
2	1	0	1	1	418.244	-0.391519	-0.391736	0.00020232	2	-0.045635	42	157.135	-7.9256e-08
2	1	0	0	1	419.644	-0.398518	-0.398742	0.000174434	2	-0.0456348	42	158.535	-6.95543e-08
2	1	0	1	1	421.044	-0.405517	-0.40574	0.000143853	2	-0.0456347	42	159.935	-5.83669e-08
2	1	0	1	1	422.443	-0.412515	-0.41277	0.000129105	2	-0.0456346	42	161.335	-5.32909e-08
2	1	0	0	1	423.843	-0.419514	-0.419768	0.0001119	2	-0.0456345	42	162.734	-4.69721e-08
2	1	0	1	1	425.243	-0.426513	-0.426751	8.79693e-05	2	-0.0456345	42	164.134	-3.7541e-08
2	1	0	0	1	426.643	-0.433512	-0.433742	8.31027e-05	2	-0.0456345	42	0.000000000000000E+000	-3.60452e-08
2	1	0	1	1	428.043	-0.440511	-0.440729	5.52477e-05	2	-0.0456345	42	1.7998	-2.43493e-08
2	1	0	0	1	429.442	-0.44751	-0.447731	5.06955e-05	2	-0.0456345	42	3.1996	-2.26979e-08
2	0	0	1	1	430.842	-0.454509	-0.454757	2.36855e-05	2	-0.0456346	42	4.5994	-1.07711e-08
2	1	0	1	1	432.242	-0.461507	-0.461743	1.03257e-05	2	-0.0456347	42	5.9991	-4.76783e-09
2	1	0	0	1	433.642	-0.468506	-0.468739	-6.09318e-06	2	-0.0456349	42	7.3988	2.85612e-09
2	1	0	1	1	435.041	-0.475505	-0.475759	-1.08339e-05	2	-0.045635	42	8.7986	5.15432e-09
2	1	0	0	1	436.441	-0.482504	-0.482733	-3.58374e-05	2	-0.0456352	42	10.1984	1.72999e-08
2	1	0	1	1	437.841	-0.489503	-0.489737	-5.39398e-05	2	-0.0456354	42	11.5982	2.64163e-08
2	1	0	0	1	439.241	-0.496502	-0.496705	-5.88087e-05	2	-0.0456356	42	12.998	2.92105e-08
2	1	0	1	1	440.641	-0.503501	-0.503714	-8.13364e-05	2	-0.0456359	42	14.3978	4.09702e-08
2	1	0	0	1	442.04	-0.5105	-0.510726	-9.75521e-05	2	-0.0456361	42	15.7976	4.98224e-08
2	1	0	1	1	443.44	-0.517498	-0.517737	-0.000104747	2	-0.0456364	42	17.1973	5.42317e-08
2	1	0	1	1	444.84	-0.524497	-0.524745	-0.000123923	2	-0.0456368	42	18.597	6.50277e-08
2	1	0	0	1	446.24	-0.531496	-0.531754	-0.000138503	2	-0.0456371	42	19.9968	7.36492e-08
2	1	0	1	1	447.639	-0.538495	-0.538742	-0.000149111	2	-0.0456375	42	21.3966	8.03325e-08
2	1	0	0	1	449.039	-0.545494	-0.545755	-0.000160992	2	-0.0456378	42	22.7964	8.78619e-08
2	1	0	1	1	450.439	-0.552493	-0.552754	-0.000183546	2	-0.0456382	42	24.1962	1.01456e-07
2	1	0	0	1	451.839	-0.559492	-0.55972	-0.000191381	2	-0.0456386	42	25.596	1.0712e-07
2	0	0	1	1	453.239	-0.566491	-0.566734	-0.000208143	2	-0.0456391	42	26.9958	1.17962e-07
2	0	0	0	1	454.638	-0.573489	-0.573714	-0.00023102	2	-0.0456395	42	28.3956	1.32539e-07
2	0	0	1	1	456.038	-0.580489	-0.580735	-0.000258665	2	-0.04564	42	29.7953	1.50216e-07
2	0	0	1	1	457.438	-0.587487	-0.587735	-0.00028802	2	-0.0456405	42	31.195	1.6928e-07
2	0	0	0	1	458.838	-0.594486	-0.594703	-0.000312952	2	-0.045641	42	32.5948	1.86114e-07
2	0	0	1	1	460.237	-0.601485	-0.601739	-0.000351318	2	-0.0456416	42	33.9946	2.11402e-07
2	0	0	0	1	461.637	-0.608484	-0.608741	-0.000367644	2	-0.0456421	42	35.3944	2.238e-07
2	0	0	1	1	463.037	-0.615483	-0.615742	-0.000393067	2	-0.0456427	42	36.7942	2.42028e-07
2	0	0	0	1	464.437	-0.622482	-0.622722	-0.000413618	2	-0.0456434	42	38.194	2.57569e-07
2	0	0	1	1	465.837	-0.629481	-0.629733	-0.000446746	2	-0.045644	42	39.5938	2.81331e-07
2	0	0	1	1	467.236	-0.636479	-0.636722	-0.00046618	2	-0.0456447	42	40.9935	2.96827e-07
2	0	0	0	1	468.636	-0.643478	-0.643734	-0.000502034	2	-0.0456455	42	42.3932	3.23176e-07
2	0	0	1	1	470.036	-0.650477	-0.650734	-0.000534851	2	-0.0456463	42	43.793	3.48046e-07
2	0	0	0	1	471.436	-0.657476	-0.657735	-0.000570481	2	-0.0456471	42	45.1928	3.75225e-07
2	0	0	1	1	472.835	-0.664475	-0.664748	-0.000594315	2	-0.045648	42	46.5926	3.95069e-07
2	0	0	0	1	474.235	-0.671474	-0.671722	-0.000635174	2	-0.045649	42	47.9924	4.2666e-07
2	0	0	1	1	475.635	-0.678473	-0.678719	-0.000674985	2	-0.04565	42	49.3922	4.58125e-07
2	0	0	0	1	477.035	-0.685472	-0.685719	-0.000725247	2	-0.0456511	42	50.792	4.97316e-07
2	0	0	1	1	478.435	-0.692471	-0.692697	-0.000767643	2	-0.0456522	42	52.1918	5.31744e-07
2	0	0	1	1	479.834	-0.699469	-0.699728	-0.000823967	2	-0.0456535	42	53.5914	5.76553e-07
2	0	0	0	1	481.234	-0.706468	-0.70673	-0.000865968	2	-0.0456548	42	54.9912	6.12006e-07
2	0	0	1	1	482.634	-0.713467	-0.713725	-0.000924225	2	-0.0456562	42	56.391	6.59643e-07
2	1	0	0	1	484.034	-0.720466	-0.720718	-0.000966609	2	-0.0456577	42	57.7908	6.96653e-07
2	1	0	1	1	485.433	-0.727465	-0.727731	-0.00102181	2	-0.0456592	42	59.1906	7.43602e-07
2	1	0	0	1	486.833	-0.734464	-0.734706	-0.00107208	2	-0.0456609	42	60.5904	7.87662e-07
2	1	0	1	1	488.233	-0.741463	-0.741716	-0.00112691	2	-0.0456626	42	61.9902	8.35848e-07
2	0	0	0	1	489.633	-0.748462	-0.748701	-0.00117773	2	-0.0456644	42	63.39	8.81766e-07
2	0	0	1	1	491.032	-0.75546	-0.755721	-0.00125182	2	-0.0456663	42	64.7897	9.46025e-07
2	0	0	1	1	492.432	-0.762459	-0.762709	-0.00131255	2	-0.0456682	42	66.1894	1.00109e-06
2	0	0	0	1	493.832	-0.769458	-0.769693	-0.00138352	2	-0.0456703	42	67.5892	1.06488e-06
2	0	0	1	1	495.232	-0.776457	-0.776704	-0.00144901	2	-0.0456724	42	68.989	1.12545e-06
2	0	0	0	1	496.632	-0.783456	-0.7837	-0.00151699	2	-0.0456746	42	70.3888	1.18887e-06
2	0	0	1	1	498.031	-0.790455	-0.790701	-0.00158417	2	-0.0456768	42	71.7886	1.2526e-06
2	0	0	0	1	499.431	-0.797454	-0.797676	-0.00164761	2	-0.0456792	42	73.1884	1.31426e-06
2	0	0	1	1	500.831	-0.804453	-0.804694	-0.00171031	2	-0.0456816	42	74.5882	1.37628e-06
2	0	0	1	1	502.231	-0.811451	-0.811695	-0.00176498	2	-0.0456841	42	75.9879	1.43263e-06
2	0	0	1	1	503.63	-0.818451	-0.818687	-0.00182098	2	-0.0456867	42	77.3877	1.49082e-06
2	0	0	1	1	505.03	-0.825449	-0.825688	-0.00185531	2	-0.0456893	42	78.7874	1.53191e-06
2	0	0	0	1	506.43	-0.832448	-0.832702	-0.00190391	2	-0.045692	42	80.1872	1.58539e-06
2	0	0	1	1	507.83	-0.839447	-0.839689	-0.00193917	2	-0.0456948	42	81.587	1.6283e-06
2	0	0	0	1	509.23	-0.846446	-0.846677	-0.00196905	2	-0.0456977	42	82.9868	1.66715e-06
2	0	0	1	1	510.629	-0.853445	-0.853662	-0.0020107	2	-0.0457006	42	84.3866	1.71645e-06
2	0	0	0	1	512.029	-0.860444	-0.860682	-0.00204854	2	-0.0457036	42	85.7864	1.76314e-06
2	0	0	1	1	513.429	-0.867443	-0.867665	-0.00208801	2	-0.0457067	42	87.1862	1.81169e-06
2	0	0	1	1	514.829	-0.874441	-0.874664	-0.00212163	2	-0.0457098	42	88.5859	1.85571e-06
2	0	0	0	1	516.228	-0.88144	-0.881662	-0.00217438	2	-0.045713	42	89.9856	1.91707e-06
2	0	0	1	1	517.628	-0.888439	-0.888704	-0.00223673	2	-0.0457163	42	91.3854	1.98779e-06
2	0	0	0	1	519.028	-0.895438	-0.895686	-0.00230005	2	-0.0457196	42	92.7852	2.06013e-06
2	0	0	1	1	520.428	-0.902437	-0.902683	-0.00236769	2	-0.0457231	42	94.185	2.13727e-06
2	0	0	0	1	521.828	-0.909436	-0.909687	-0.00244461	2	-0.0457266	42	95.5848	2.22383e-06
2	0	0	1	1	523.227	-0.916435	-0.916668	-0.00251494	2	-0.0457301	42	96.9846	2.30537e-06
2	0	0	0	1	524.627	-0.923434	-0.923671	-0.00259614	2	-0.0457338	42	98.3844	2.39798e-06
2	0	0	1	1	526.027	-0.930432	-0.93066	-0.00269386	2	-0.0457376	42	99.7841	2.50707e-06
2	0	0	1	1	527.427	-0.937432	-0.937685	-0.00277707	2	-0.0457415	42	101.184	2.60402e-06
2	0	0	0	1	528.826	-0.94443	-0.944671	-0.00285968	2	-0.0457455	42	102.584	2.70146e-06
2	0	0	1	1	530.226	-0.951429	-0.951662	-0.0029616	2	-0.0457496	42	103.983	2.81844e-06
2	0	0	0	1	531.626	-0.958428	-0.958665	-0.00309313	2	-0.0457539	42	105.383	2.96528e-06
2	0	0	1	1	533.026	-0.965427	-0.96567	-0.00322354	2	-0.0457584	42	106.783	3.11288e-06
2	0	0	0	1	534.426	-0.972426	-0.972683	-0.0033552	2	-0.0457632	42	108.183	3.26354e-06
2	0	0	1	1	535.825	-0.979425	-0.979652	-0.00351057	2	-0.0457681	42	109.583	3.43913e-06
2	0	0	0	1	537.225	-0.986423	-0.986675	-0.00365906	2	-0.0457733	42	110.982	3.61031e-06
2	0	0	1	1	538.625	-0.993423	-0.993657	-0.00381196	2	-0.0457787	42	112.382	3.78778e-06
2	0	0	1	1	540.025	-1.00042	-1.00065	-0.00398443	2	-0.0457843	42	113.782	3.98702e-06
2	0	0	0	1	541.424	-1.00742	-1.00762	-0.00418166	2	-0.0457902	42	115.182	4.21353e-06
2	0	0	1	1	542.824	-1.01442	-1.01466	-0.0043773	2	-0.0457964	42	116.581	4.44148e-06
2	0	0	0	1	544.224	-1.02142	-1.02163	-0.00463464	2	-0.0458029	42	117.981	4.73488e-06
2	0	0	1	1	545.624	-1.02842	-1.02865	-0.00490876	2	-0.0458098	42	119.381	5.04937e-06
2	0	0	0	1	547.024	-1.03542	-1.03567	-0.0052907	2	-0.0458171	42	120.781	5.47945e-06
2	0	0	1	1	548.423	-1.04241	-1.04266	-0.00559067	2	-0.0458248	42	122.181	5.82914e-06
2	0	0	1	1	549.823	-1.04941	-1.04969	-0.00575608	2	-0.0458329	42	123.58	6.0421e-06
2	0	0	0	1	551.223	-1.05641	-1.05665	-0.00596601	2	-0.0458411	42	124.98	6.30401e-06
2	0	0	1	1	552.623	-1.06341	-1.06366	-0.00615544	2	-0.0458497	42	126.38	6.54733e-06
2	0	0	0	1	554.022	-1.07041	-1.07067	-0.00643452	2	-0.0458586	42	127.78	6.88923e-06
2	0	0	1	1	555.422	-1.07741	-1.07766	-0.00675007	2	-0.0458679	42	129.179	7.27426e-06
2	0	0	0	1	556.822	-1.08441	-1.08467	-0.00708176	2	-0.0458776	42	130.579	7.68134e-06
2	0	0	1	1	558.222	-1.09141	-1.09166	-0.00744324	2	-0.0458879	42	131.979	8.12549e-06
2	0	0	0	1	559.622	-1.09841	-1.09865	-0.00786749	2	-0.0458988	42	133.379	8.64361e-06
2	0	0	1	1	561.021	-1.1054	-1.10565	-0.00828081	2	-0.0459103	42	134.778	9.15566e-06
2	0	0	1	1	562.431	-1.11245	-1.11268	-0.00876497	2	-0.0459225	42	136.188	9.75257e-06
2	0	0	0	1	563.841	-1.1195	-1.11974	-0.00943022	2	-0.0459356	41	137.598	1.05594e-05
2	0	0	1	1	565.241	-1.1265	-1.12675	-0.0100097	2	-0.0459494	41	138.998	1.12785e-05
2	0	0	0	1	566.64	-1.1335	-1.13374	-0.0106793	2	-0.0459641	41	140.398	1.21075e-05
2	0	0	1	1	568.04	-1.1405	-1.14074	-0.0114606	2	-0.0459798	41	141.797	1.30735e-05
2	0	0	0	1	569.44	-1.1475	-1.14774	-0.0123657	2	-0.0459968	41	143.197	1.41926e-05
2	0	0	1	1	570.84	-1.1545	-1.15474	-0.0133386	2	-0.046015	41	144.597	1.54026e-05
2	0	0	1	1	572.24	-1.1615	-1.16173	-0.0146355	2	-0.0460347	41	145.997	1.70025e-05
2	0	0	1	1	573.639	-1.16849	-1.16871	-0.0162414	2	-0.0460566	41	147.396	1.89816e-05
2	0	0	1	1	575.039	-1.17549	-1.17571	-0.0177596	2	-0.0460806	41	148.796	2.088e-05
2	0	0	0	1	576.439	-1.18249	-1.18271	-0.0193591	2	-0.0461067	41	150.196	2.28963e-05
2	0	0	1	1	577.839	-1.18949	-1.18973	-0.0212296	2	-0.0461354	41	151.596	2.52574e-05
2	0	0	0	1	579.238	-1.19649	-1.19675	-0.0232859	2	-0.0461667	41	152.996	2.78674e-05
2	0	0	1	1	580.638	-1.20349	-1.20372	-0.0261403	2	-0.0462016	41	154.395	3.14657e-05
2	0	0	0	1	582.038	-1.21049	-1.2107	-0.0286427	2	-0.0462399	41	155.795	3.46777e-05
2	0	0	1	1	583.438	-1.21749	-1.21772	-0.0322932	2	-0.0462827	41	157.195	3.9324e-05
2	0	0	1	1	584.837	-1.22449	-1.22471	-0.0368056	2	-0.0463312	41	158.595	4.50763e-05
2	0	0	0	1	586.237	-1.23148	-1.23172	-0.0421504	2	-0.0463867	41	159.994	5.19177e-05
2	0	0	1	1	587.637	-1.23848	-1.23873	-0.0491513	2	-0.046451	41	161.394	6.0885e-05
2	0	0	0	1	589.037	-1.24548	-1.24573	-0.0567643	2	-0.0465254	41	162.794	7.0713e-05
2	0	0	1	1	590.437	-1.25248	-1.25273	-0.0661765	2	-0.0466115	41	164.194	8.29012e-05
2	0	0	0	1	591.836	-1.25948	-1.25975	-0.0763461	2	-0.0467114	41	165.594	9.61767e-05
2	0	0	1	1	593.236	-1.26648	-1.26674	-0.0886488	2	-0.046827	41	166.993	0.000112295
2	0	0	0	1	594.636	-1.27348	-1.27373	-0.102339	2	-0.0469608	41	168.393	0.000130353
2	0	0	1	1	596.056	-1.28058	-1.28081	-0.12018	2	-0.0471188	40	169.813	0.000153928
2	0	0	1	1	597.455	-1.28758	-1.28781	-0.144963	2	-0.0473043	40	171.213	0.000186685
2	0	0	0	1	598.855	-1.29457	-1.29482	-0.178878	2	-0.0475304	40	172.612	0.000231614
2	0	0	1	0	600.055	-1.29947	-1.29971	-0.206618	3	-0.0477631	40	173.813	0.000268544
2	0	0	0	0	601.455	-1.29247	-1.29269	-0.19318	3	-0.0480404	40	175.212	0.000249722
2	0	0	1	0	602.855	-1.28548	-1.28572	-0.184227	3	-0.0483045	40	176.612	0.000236864
2	0	0	0	0	604.255	-1.27848	-1.27871	-0.1753	3	-0.0485556	40	178.012	0.000224156
2	0	0	1	0	605.655	-1.27148	-1.2717	-0.168942	3	-0.0487962	40	179.412	0.000214845
2	0	0	0	0	607.054	-1.26448	-1.26471	-0.162474	3	-0.0490279	40	180.812	0.000205482
2	0	0	1	0	608.454	-1.25748	-1.2577	-0.156468	3	-0.0492511	40	182.211	0.00019679
2	0	0	0	0	609.854	-1.25048	-1.25073	-0.150689	3	-0.0494657	40	183.611	0.000188471
2	0	0	1	0	611.254	-1.24348	-1.24373	-0.144314	3	-0.0496716	40	185.011	0.000179488
2	0	0	1	0	612.653	-1.23648	-1.23673	-0.138047	3	-0.0498689	40	186.411	0.000170727
2	0	0	0	0	614.053	-1.22948	-1.22972	-0.13198	3	-0.0500574	40	187.81	0.000162298
2	0	0	1	0	615.453	-1.22249	-1.22274	-0.12518	3	-0.0502371	40	189.21	0.000153063
2	0	0	0	0	616.853	-1.21549	-1.21573	-0.119461	3	-0.0504082	40	190.61	0.000145232
2	0	0	1	0	618.253	-1.20849	-1.20872	-0.11332	3	-0.0505708	40	192.01	0.000136972
2	0	0	0	0	619.652	-1.20149	-1.20173	-0.10703	3	-0.0507247	40	193.41	0.000128621
2	0	0	1	0	621.052	-1.19449	-1.19474	-0.100243	3	-0.0508696	40	194.809	0.000119764
2	0	0	0	0	622.452	-1.18749	-1.18773	-0.093638	3	-0.0510051	40	196.209	0.000111216
2	0	0	1	0	623.852	-1.18049	-1.18074	-0.0869023	3	-0.0511312	40	197.609	0.000102609
2	0	0	1	0	625.251	-1.17349	-1.17374	-0.0801438	3	-0.0512478	40	199.009	9.40684e-05
2	0	0	0	0	626.651	-1.16649	-1.16673	-0.0730808	3	-0.0513547	40	200.408	8.52657e-05
2	0	0	1	0	628.051	-1.1595	-1.15972	-0.0661769	3	-0.0514519	40	201.808	7.67467e-05
2	0	0	0	0	629.451	-1.1525	-1.15274	-0.0595868	3	-0.0515397	40	203.208	6.86884e-05
2	0	0	1	0	630.851	-1.1455	-1.14573	-0.0529991	3	-0.0516181	40	204.608	6.07228e-05
2	0	0	0	0	632.25	-1.1385	-1.13878	-0.0469485	3	-0.0516878	40	206.008	5.34639e-05
2	0	0	1	0	633.69	-1.1313	-1.13153	-0.0412715	3	-0.051751	41	207.447	4.67001e-05
2	0	0	1	0	635.09	-1.1243	-1.12454	-0.0361498	3	-0.0518048	41	208.847	4.0652e-05
2	0	0	0	0	636.49	-1.1173	-1.11757	-0.0316192	3	-0.051852	41	210.247	3.53367e-05
2	0	0	1	0	637.889	-1.1103	-1.11055	-0.0276621	3	-0.0518931	41	211.647	3.07203e-05
2	0	0	0	0	639.289	-1.1033	-1.10357	-0.0241712	3	-0.0519291	41	213.046	2.66747e-05
2	0	0	1	0	640.689	-1.09631	-1.09656	-0.0210781	3	-0.0519604	41	214.446	2.31134e-05
2	0	0	0	0	642.089	-1.08931	-1.08958	-0.0184435	3	-0.0519878	41	215.846	2.00956e-05
2	0	0	1	0	643.489	-1.08231	-1.08257	-0.0161277	3	-0.0520117	41	217.246	1.74594e-05
2	0	0	0	0	644.888	-1.07531	-1.07556	-0.0141227	3	-0.0520327	41	218.646	1.51899e-05
2	0	0	1	0	646.288	-1.06831	-1.06856	-0.0123357	3	-0.0520509	41	220.045	1.31814e-05
2	0	0	1	0	647.688	-1.06131	-1.06157	-0.0107732	3	-0.0520669	41	221.445	1.14365e-05
2	0	0	0	0	649.088	-1.05431	-1.05458	-0.00944507	3	-0.0520809	41	222.845	9.96054e-06
2	0	0	1	0	650.487	-1.04731	-1.04759	-0.00823228	3	-0.052093	41	224.245	8.62407e-06
2	0	0	0	0	651.887	-1.04031	-1.04058	-0.00719159	3	-0.0521036	41	225.644	7.48345e-06
2	0	0	1	0	653.287	-1.03332	-1.03357	-0.00624912	3	-0.0521129	41	227.044	6.4589e-06
2	0	0	0	0	654.687	-1.02632	-1.02656	-0.00544337	3	-0.0521209	41	228.444	5.58792e-06
2	0	0	1	0	656.087	-1.01932	-1.01958	-0.00472768	3	-0.0521279	41	229.844	4.82023e-06
2	0	0	1	0	657.486	-1.01232	-1.0126	-0.00405325	3	-0.0521338	41	231.244	4.10431e-06
2	0	0	1	0	658.926	-1.00512	-1.00538	-0.00331912	3	-0.052139	42	232.683	3.33699e-06
2	0	0	1	0	660.326	-0.998122	-0.998376	-0.00260493	3	-0.0521431	42	234.083	2.6007e-06
2	0	0	0	0	661.726	-0.991123	-0.991356	-0.00185012	3	-0.0521461	42	235.483	1.83413e-06
2	1	0	1	0	663.125	-0.984124	-0.984347	-0.00104217	3	-0.052148	42	236.883	1.02586e-06
2	1	0	0	0	664.525	-0.977125	-0.97736	-0.000204268	3	-0.0521489	42	238.282	1.99644e-07
2	1	0	1	0	665.925	-0.970126	-0.970365	0.000656636	3	-0.0521485	42	0.9998	-6.37177e-07
2	1	0	0	0	667.325	-0.963127	-0.96335	0.0015938	3	-0.0521468	42	2.3996	-1.53539e-06
2	1	0	1	0	668.724	-0.956129	-0.956362	0.0025891	3	-0.0521438	42	3.7993	-2.47611e-06
2	1	0	1	0	670.124	-0.94913	-0.949371	0.00370621	3	-0.0521393	42	5.199	-3.51857e-06
2	1	0	0	0	671.524	-0.942131	-0.942384	0.00502666	3	-0.052133	42	6.5988	-4.73704e-06
2	1	0	1	0	672.924	-0.935132	-0.935395	0.00644967	3	-0.0521248	42	7.9986	-6.03299e-06
2	1	0	0	0	674.324	-0.928133	-0.928392	0.00779871	3	-0.0521146	42	9.3984	-7.24026e-06
2	1	0	1	0	675.733	-0.921084	-0.921354	0.00872702	3	-0.0521027	42	10.8082	-8.04068e-06
2	1	0	0	0	677.143	-0.914035	-0.914311	0.00883784	3	-0.05209	41	12.218	-8.08053e-06
2	1	0	1	0	678.543	-0.907036	-0.907281	0.00818886	3	-0.0520778	41	13.6178	-7.42959e-06
2	1	0	0	0	679.943	-0.900037	-0.900281	0.00696645	3	-0.0520669	41	15.0176	-6.27176e-06
2	1	0	1	0	681.342	-0.893038	-0.893299	0.00555427	3	-0.0520579	41	16.4173	-4.96162e-06
2	1	0	1	0	682.742	-0.88604	-0.886305	0.00415756	3	-0.0520509	41	17.817	-3.68487e-06
2	1	0	0	0	684.162	-0.878941	-0.879199	0.00283882	3	-0.0520458	42	19.2368	-2.49589e-06
2	1	0	1	0	685.562	-0.871942	-0.872205	0.00177483	3	-0.0520424	42	20.6366	-1.54801e-06
2	1	0	0	0	686.962	-0.864943	-0.86522	0.00103665	3	-0.0520403	42	22.0364	-8.96934e-07
2	1	0	1	0	688.361	-0.857944	-0.858247	0.000558783	3	-0.052039	42	23.4362	-4.79574e-07
2	1	0	0	0	689.761	-0.850945	-0.851203	0.000286201	3	-0.0520383	42	24.836	-2.43615e-07
2	1	0	1	0	691.161	-0.843946	-0.84422	0.000136627	3	-0.0520379	42	26.2358	-1.15343e-07
2	1	0	1	0	692.561	-0.836947	-0.837227	4.89144e-05	3	-0.0520376	42	27.6355	-4.09525e-08
2	1	0	0	0	693.96	-0.829949	-0.830194	-1.9595e-05	3	-0.0520375	42	29.0352	1.62677e-08
2	1	0	1	0	695.36	-0.82295	-0.823186	-7.44826e-05	3	-0.0520375	42	0.2	6.13131e-08
2	1	0	0	0	696.76	-0.815951	-0.816187	-0.000104791	3	-0.0520376	42	1.5998	8.5529e-08
2	1	0	1	0	698.16	-0.808952	-0.809202	-0.000142581	3	-0.0520377	42	2.9996	1.15377e-07
2	1	0	0	0	699.56	-0.801953	-0.802204	-0.000151184	3	-0.0520378	42	4.3994	1.2128e-07
2	0	0	1	0	700.959	-0.794954	-0.795208	-0.000166256	3	-0.052038	42	5.7992	1.32208e-07
2	0	0	0	0	702.359	-0.787955	-0.788186	-0.000202735	3	-0.0520381	42	7.199	1.59793e-07
2	0	0	1	0	703.759	-0.780956	-0.781219	-0.000240055	3	-0.0520384	42	8.5988	1.87536e-07
2	0	0	1	0	705.159	-0.773957	-0.774216	-0.000251533	3	-0.0520386	42	9.9985	1.94741e-07
2	0	0	0	0	706.558	-0.766959	-0.767213	-0.000251062	3	-0.0520388	42	11.3982	1.92618e-07
2	0	0	1	0	707.958	-0.75996	-0.760211	-0.000255941	3	-0.052039	42	12.798	1.94569e-07
2	0	0	0	0	709.358	-0.752961	-0.753217	-0.000227928	3	-0.0520391	42	14.1978	1.71679e-07
2	0	0	1	0	710.758	-0.745962	-0.746213	-0.0002086	3	-0.0520393	42	15.5976	1.5566e-07
2	0	0	0	0	712.158	-0.738963	-0.739208	-0.000159911	3	-0.0520394	42	16.9974	1.18207e-07
2	0	0	1	0	713.557	-0.731964	-0.732222	-0.000104565	3	-0.0520394	42	0.000000000000000E+000	7.65649e-08
2	0	0	0	0	714.957	-0.724965	-0.725201	-4.56179e-05	3	-0.0520393	42	0.9999	3.30821e-08
2	1	0	1	0	716.357	-0.717966	-0.718214	3.57449e-05	3	-0.0520392	42	2.3996	-2.56725e-08
2	1	0	1	0	717.757	-0.710968	-0.711207	0.000103695	3	-0.052039	42	3.7993	-7.37485e-08
2	1	0	0	0	719.156	-0.703969	-0.704211	0.000183275	3	-0.0520387	42	5.1991	-1.29064e-07
2	1	0	1	0	720.556	-0.69697	-0.697217	0.000220466	3	-0.0520384	42	6.5989	-1.53713e-07
2	1	0	0	0	721.956	-0.689971	-0.690218	0.000266622	3	-0.052038	42	7.9987	-1.84028e-07
2	1	0	1	0	723.356	-0.682972	-0.683226	0.000297033	3	-0.0520375	42	9.3985	-2.0294e-07
2	0	0	0	0	724.756	-0.675973	-0.676179	0.000319091	3	-0.052037	42	10.7983	-2.15763e-07
2	0	0	1	0	726.155	-0.668974	-0.669216	0.000348998	3	-0.0520364	42	12.1981	-2.33555e-07
2	0	0	1	0	727.555	-0.661976	-0.662247	0.000384764	3	-0.0520358	42	13.5978	-2.54808e-07
2	0	0	1	0	728.955	-0.654976	-0.655238	0.000430055	3	-0.0520351	42	14.9976	-2.81788e-07
2	1	0	1	0	730.355	-0.647978	-0.648223	0.00046816	3	-0.0520343	42	16.3973	-3.03472e-07
2	1	0	0	0	731.754	-0.640979	-0.641225	0.000509105	3	-0.0520335	42	17.7971	-3.26451e-07
2	1	0	1	0	733.154	-0.63398	-0.634246	0.000528165	3	-0.0520326	42	19.1969	-3.34986e-07
2	1	0	0	0	734.554	-0.626981	-0.627225	0.000537004	3	-0.0520317	42	20.5967	-3.36822e-07
2	1	0	1	0	735.954	-0.619982	-0.620253	0.000509076	3	-0.0520308	42	21.9965	-3.15756e-07
2	1	0	0	0	737.354	-0.612983	-0.613242	0.000450101	3	-0.05203	42	23.3963	-2.76021e-07
2	1	0	1	0	738.753	-0.605984	-0.60624	0.000449533	3	-0.0520293	42	24.7961	-2.72525e-07
2	1	0	1	0	740.153	-0.598985	-0.599214	0.000449237	3	-0.0520286	42	26.1958	-2.69189e-07
2	1	0	0	0	741.553	-0.591987	-0.592208	0.000453726	3	-0.0520278	42	27.5955	-2.687e-07
2	1	0	1	0	742.953	-0.584988	-0.585224	0.000458212	3	-0.0520271	42	28.9953	-2.68157e-07
2	1	0	0	0	744.352	-0.577989	-0.578231	0.000463778	3	-0.0520264	42	30.3951	-2.68171e-07
2	1	0	1	0	745.752	-0.57099	-0.571233	0.000449045	3	-0.0520257	42	31.7949	-2.56509e-07
2	0	0	0	0	747.152	-0.563991	-0.56423	0.000437212	3	-0.052025	42	33.1947	-2.46688e-07
2	0	0	1	0	748.552	-0.556992	-0.557269	0.000419216	3	-0.0520243	42	34.5945	-2.33616e-07
2	0	0	0	0	749.952	-0.549993	-0.550252	0.000406103	3	-0.0520236	42	35.9943	-2.23459e-07
2	0	0	1	0	751.351	-0.542995	-0.543232	0.000384129	3	-0.0520229	42	37.394	-2.08671e-07
2	1	0	1	0	752.751	-0.535995	-0.536276	0.000374725	3	-0.0520222	42	38.7937	-2.00956e-07
2	1	0	0	0	754.151	-0.528997	-0.529272	0.000378715	3	-0.0520215	42	40.1935	-2.00443e-07
2	1	0	1	0	755.551	-0.521998	-0.522245	0.000380815	3	-0.0520209	42	41.5933	-1.98879e-07
2	1	0	0	0	756.95	-0.514999	-0.515233	0.000392892	3	-0.0520202	42	42.9931	-2.02431e-07
2	1	0	1	0	758.35	-0.508	-0.508228	0.000397546	3	-0.0520195	42	44.3929	-2.02044e-07
2	1	0	0	0	759.75	-0.501001	-0.501238	0.000399387	3	-0.0520188	42	45.7927	-2.00188e-07
2	1	0	1	0	761.15	-0.494002	-0.494252	0.000410479	3	-0.0520181	42	47.1925	-2.0288e-07
2	1	0	1	0	762.549	-0.487004	-0.487226	0.000429113	3	-0.0520174	42	48.5922	-2.09075e-07
2	1	0	0	0	763.949	-0.480004	-0.480229	0.000412525	3	-0.0520168	42	49.9919	-1.98107e-07
2	1	0	1	0	765.349	-0.473006	-0.473272	0.000420649	3	-0.0520161	42	51.3917	-1.99081e-07
2	1	0	0	0	766.749	-0.466007	-0.466237	0.000420644	3	-0.0520154	42	52.7915	-1.9612e-07
2	1	0	1	0	768.149	-0.459008	-0.459245	0.000413682	3	-0.0520148	42	54.1913	-1.89981e-07
2	0	0	0	0	769.548	-0.452009	-0.452259	0.000395868	3	-0.0520141	42	55.5911	-1.79035e-07
2	0	0	1	0	770.948	-0.44501	-0.445255	0.000379033	3	-0.0520135	42	56.9909	-1.68766e-07
2	0	0	0	0	772.348	-0.438011	-0.438244	0.000370974	3	-0.0520128	42	58.3907	-1.62577e-07
2	0	0	1	0	773.748	-0.431012	-0.431251	0.000352539	3	-0.0520121	42	59.7905	-1.52033e-07
2	0	0	1	0	775.147	-0.424013	-0.424282	0.000350192	3	-0.0520115	42	61.1902	-1.4858e-07
2	1	0	0	0	776.547	-0.417015	-0.417258	0.000345963	3	-0.0520108	42	62.5899	-1.44356e-07
2	1	0	1	0	777.947	-0.410016	-0.410277	0.000357364	3	-0.0520102	42	63.9897	-1.46618e-07
2	1	0	0	0	779.347	-0.403017	-0.403253	0.000357144	3	-0.0520095	42	65.3895	-1.44019e-07
2	1	0	1	0	780.747	-0.396018	-0.396247	0.000364935	3	-0.0520089	42	66.7893	-1.44604e-07
2	1	0	0	0	782.146	-0.389019	-0.389279	0.00037398	3	-0.0520082	42	68.1891	-1.45582e-07
2	1	0	1	0	783.546	-0.38202	-0.382274	0.000371535	3	-0.0520076	42	69.5889	-1.42028e-07
2	1	0	0	0	784.946	-0.375021	-0.375275	0.000385892	3	-0.052007	42	70.9887	-1.44816e-07
2	1	0	1	0	786.346	-0.368023	-0.36825	0.000387465	3	-0.0520063	42	72.3884	-1.42684e-07
2	1	0	1	0	787.745	-0.361024	-0.361251	0.000383986	3	-0.0520057	42	73.7881	-1.38716e-07
2	1	0	0	0	789.145	-0.354025	-0.354244	0.000394401	3	-0.052005	42	75.1879	-1.39714e-07
2	1	0	1	0	790.545	-0.347026	-0.347266	0.000397139	3	-0.0520044	42	76.5877	-1.37913e-07
2	1	0	0	0	791.945	-0.340027	-0.34023	0.000400332	3	-0.0520037	42	77.9875	-1.36205e-07
2	1	0	1	0	793.345	-0.333028	-0.333228	0.00040284	3	-0.052003	42	79.3873	-1.34237e-07
2	1	0	0	0	794.744	-0.326029	-0.326252	0.000401249	3	-0.0520024	42	80.7871	-1.30908e-07
2	1	0	1	0	796.144	-0.31903	-0.319253	0.000401308	3	-0.0520017	42	82.1869	-1.28119e-07
2	0	0	1	0	797.544	-0.312032	-0.312268	0.000406645	3	-0.052001	42	83.5866	-1.26982e-07
2	0	0	1	0	798.944	-0.305032	-0.305247	0.000408906	3	-0.0520003	42	84.9864	-1.24818e-07
2	1	0	0	0	800.064	-0.300533	-0.300753	0.000405484	3	-0.0519998	42	86.1067	-1.21951e-07
2	1	0	1	0	801.374	-0.307082	-0.30739	-5.16127e-05	3	-0.0519995	42	87.4165	1.58652e-08
2	1	0	0	0	801.392	-0.307182	-0.307462	-5.55778e-05	3	-0.0519995	42	0.000000000000000E+000	1.70881e-08