File: Fig 1/Fig 1_RRDE-pc-Fe2O3_5mvs_ring.mpt
mode	ox/red	error	control changes	counter inc.	time/s	control/V	Ewe/V	<I>/mA	cycle number	(Q-Qo)/C	I Range	step time/s	P/W
2	1	0	0	0	0.000000000000000E+000	-0.300004	-1.16891	0.0100342	1	0.0000000E+000	39	0.000000000000000E+000	-1.1729e-05
2	1	0	1	0	1.7098	-0.308553	-0.309054	0.0257978	1	9.69494e-05	39	1.5998	-7.97293e-06
2	1	0	1	0	3.5095	-0.317551	-0.317556	0.0152104	1	0.00013038	39	3.3995	-4.83013e-06
2	1	0	0	0	5.3092	-0.32655	-0.326812	0.0119762	1	0.000154512	39	5.1992	-3.91397e-06
2	1	0	1	0	7.109	-0.335549	-0.335059	0.0102753	1	0.000174365	39	6.999	-3.44282e-06
2	1	0	1	0	8.9086	-0.344547	-0.344317	0.00896074	1	0.000191567	39	8.7986	-3.08533e-06
2	1	0	0	0	10.7084	-0.353546	-0.35357	0.00805639	1	0.000206791	39	10.5984	-2.8485e-06
2	1	0	0	0	12.508	-0.362544	-0.362309	0.00738637	1	0.000220592	39	12.398	-2.67615e-06
2	1	0	1	0	14.3078	-0.371543	-0.371369	0.00682487	1	0.000233292	39	14.1978	-2.53455e-06
2	1	0	1	0	16.1074	-0.380541	-0.380278	0.00641149	1	0.000245106	39	15.9974	-2.43815e-06
2	1	0	0	0	17.9072	-0.38954	-0.389327	0.00601007	1	0.000256252	39	17.7972	-2.33989e-06
2	1	0	0	0	19.7068	-0.398538	-0.398065	0.00569103	1	0.00026676	39	19.5968	-2.2654e-06
2	1	0	1	0	21.5066	-0.407537	-0.407233	0.00528802	1	0.000276658	39	21.3966	-2.15345e-06
2	1	0	1	0	23.3063	-0.416536	-0.416436	0.00506115	1	0.000286012	39	23.1963	-2.10765e-06
2	1	0	0	0	25.106	-0.425534	-0.425022	0.00486322	1	0.000294927	39	24.996	-2.06698e-06
2	1	0	1	0	26.9057	-0.434533	-0.434435	0.00465599	1	0.000303434	39	26.7957	-2.02272e-06
2	1	0	1	0	28.7054	-0.443531	-0.443418	0.00445425	1	0.000311629	39	28.5954	-1.9751e-06
2	1	0	1	0	30.5051	-0.452529	-0.452498	0.00430815	1	0.00031953	39	30.3951	-1.94943e-06
2	1	0	0	0	32.3048	-0.461528	-0.461172	0.00419774	1	0.000327221	39	32.1948	-1.93588e-06
2	1	0	1	0	34.1046	-0.470527	-0.470207	0.00403356	1	0.000334672	39	33.9946	-1.8966e-06
2	1	0	1	0	35.9042	-0.479525	-0.479176	0.00397318	1	0.000341961	39	35.7942	-1.90385e-06
2	1	0	0	0	37.704	-0.488524	-0.488155	0.0038437	1	0.000348971	39	37.594	-1.87632e-06
2	1	0	0	0	39.5036	-0.497522	-0.497231	0.00370717	1	0.000355751	39	39.3936	-1.84332e-06
2	1	0	1	0	41.3034	-0.506521	-0.506155	0.00359061	1	0.000362412	39	41.1934	-1.81741e-06
2	1	0	1	0	43.103	-0.515519	-0.515375	0.00351977	1	0.0003688	39	42.993	-1.814e-06
2	1	0	0	0	44.9028	-0.524518	-0.524219	0.00343446	1	0.000375066	39	44.7928	-1.80041e-06
2	1	0	0	0	46.7024	-0.533517	-0.533551	0.0033329	1	0.000381129	39	46.5924	-1.77827e-06
2	1	0	1	0	48.5022	-0.542515	-0.542115	0.00336216	1	0.000387067	39	48.3922	-1.82268e-06
2	1	0	1	0	50.3018	-0.551514	-0.551298	0.00315968	1	0.000392908	39	50.1918	-1.74192e-06
2	1	0	0	0	52.1016	-0.560512	-0.560229	0.00311421	1	0.000398568	39	51.9916	-1.74467e-06
2	1	0	1	0	53.9013	-0.569511	-0.569455	0.00297896	1	0.000404066	39	53.7913	-1.69638e-06
2	1	0	1	0	55.701	-0.578509	-0.578145	0.00293334	1	0.000409362	39	55.591	-1.6959e-06
2	1	0	1	0	57.5007	-0.587507	-0.586987	0.00283165	1	0.000414495	39	57.3907	-1.66214e-06
2	1	0	0	0	59.3004	-0.596506	-0.596422	0.00281998	1	0.000419502	39	59.1904	-1.6819e-06
2	1	0	1	0	61.1002	-0.605505	-0.60472	0.00270796	1	0.000424473	39	60.9902	-1.63756e-06
2	1	0	1	0	62.8998	-0.614503	-0.61417	0.0026054	1	0.00042927	39	62.7898	-1.60016e-06
2	1	0	0	0	64.6996	-0.623502	-0.623507	0.00264356	1	0.000434036	39	64.5896	-1.64828e-06
2	1	0	0	0	66.4992	-0.6325	-0.63249	0.00255146	1	0.000438665	39	66.3892	-1.61377e-06
2	1	0	1	0	68.299	-0.641499	-0.641106	0.00248253	1	0.000443188	39	68.189	-1.59156e-06
2	1	0	1	0	70.0986	-0.650497	-0.650489	0.00240296	1	0.000447621	39	69.9886	-1.5631e-06
2	1	0	0	0	71.8984	-0.659496	-0.659627	0.00237098	1	0.000451972	39	71.7884	-1.56396e-06
2	1	0	0	0	73.698	-0.668495	-0.668152	0.00228052	1	0.000456207	39	73.588	-1.52374e-06
2	1	0	1	0	75.4978	-0.677493	-0.677228	0.00226605	1	0.00046028	39	75.3878	-1.53463e-06
2	1	0	1	0	77.2974	-0.686491	-0.686279	0.00218704	1	0.000464324	39	77.1874	-1.50092e-06
2	1	0	0	0	79.0972	-0.69549	-0.694975	0.00219551	1	0.000468241	39	78.9872	-1.52583e-06
2	1	0	1	0	80.8969	-0.704489	-0.704245	0.00209824	1	0.000472115	39	80.7869	-1.47768e-06
2	1	0	1	0	82.6966	-0.713487	-0.713468	0.00206806	1	0.000475922	39	82.5866	-1.4755e-06
2	1	0	1	0	84.4963	-0.722486	-0.722283	0.00206476	1	0.000479687	39	84.3863	-1.49134e-06
2	1	0	0	0	86.296	-0.731484	-0.73101	0.0020895	1	0.00048343	39	86.186	-1.52744e-06
2	1	0	1	0	88.0958	-0.740483	-0.740129	0.00202731	1	0.000487116	39	87.9858	-1.50047e-06
2	1	0	1	0	89.8954	-0.749481	-0.749088	0.00193966	1	0.000490675	39	89.7854	-1.45298e-06
2	1	0	0	0	91.6952	-0.75848	-0.758156	0.00177543	1	0.000493992	39	91.5852	-1.34605e-06
2	1	0	0	0	93.4948	-0.767478	-0.767069	0.00185681	1	0.000497334	39	93.3848	-1.4243e-06
2	1	0	1	0	95.2946	-0.776477	-0.776034	0.00171146	1	0.000500513	39	95.1846	-1.32815e-06
2	1	0	1	0	97.0942	-0.785475	-0.785262	0.00171739	1	0.000503509	39	96.9842	-1.3486e-06
2	1	0	0	0	98.894	-0.794474	-0.793924	0.00151681	1	0.000506377	39	98.784	-1.20423e-06
2	1	0	0	0	100.694	-0.803473	-0.802856	0.00144005	1	0.000509044	39	100.584	-1.15615e-06
2	1	0	1	0	102.493	-0.812471	-0.812228	0.00126182	1	0.00051151	39	102.383	-1.02488e-06
2	1	0	1	0	104.293	-0.82147	-0.821298	0.00120257	1	0.000513804	39	104.183	-9.87665e-07
2	1	0	0	0	106.093	-0.830468	-0.830547	0.00113774	1	0.000515982	39	105.983	-9.44945e-07
2	1	0	1	0	107.892	-0.839467	-0.839435	0.00105484	1	0.000517951	39	107.782	-8.85471e-07
2	1	0	1	0	109.692	-0.848465	-0.848322	0.000996845	1	0.000519748	39	109.582	-8.45645e-07
2	1	0	1	0	111.492	-0.857463	-0.857355	0.000867641	1	0.000521429	39	111.382	-7.43876e-07
2	1	0	0	0	113.292	-0.866462	-0.866449	0.000788445	1	0.00052287	39	113.182	-6.83147e-07
2	1	0	1	0	115.091	-0.875461	-0.875167	0.000654683	1	0.000524111	39	114.981	-5.72957e-07
2	1	0	1	0	116.891	-0.884459	-0.884197	0.000528052	1	0.000525133	39	116.781	-4.66903e-07
2	1	0	0	0	118.691	-0.893458	-0.893187	0.00051902	1	0.000526029	39	118.581	-4.63582e-07
2	0	0	0	0	120.49	-0.902456	-0.902031	0.000407559	1	0.000526792	39	120.38	-3.67631e-07
2	1	0	1	0	122.29	-0.911455	-0.911357	0.00034057	1	0.000527515	39	122.18	-3.10381e-07
2	1	0	1	0	124.09	-0.920453	-0.9202	0.000394161	1	0.000528165	39	123.98	-3.62707e-07
2	1	0	0	0	125.89	-0.929452	-0.928981	0.000173141	1	0.000528616	39	125.78	-1.60845e-07
2	0	0	0	0	127.689	-0.938451	-0.938002	7.01081e-05	1	0.000528828	39	127.579	-6.57616e-08
2	0	0	1	0	129.489	-0.947449	-0.94674	-1.06242e-05	1	0.000528901	39	129.379	1.00584e-08
2	1	0	1	0	131.289	-0.956448	-0.955608	-0.000114306	1	0.000528805	39	1.3998	1.09232e-07
2	0	0	0	0	133.088	-0.965446	-0.964909	-0.000220667	1	0.000528547	39	3.1995	2.12923e-07
2	1	0	1	0	134.888	-0.974445	-0.973712	-0.000245114	1	0.000528151	39	4.9992	2.38671e-07
2	1	0	1	0	136.688	-0.983443	-0.983368	-0.000363418	1	0.00052757	39	6.7989	3.57373e-07
2	0	0	1	0	138.487	-0.992441	-0.991965	-0.000518753	1	0.000526765	39	8.5986	5.14585e-07
2	0	0	0	0	140.287	-1.00144	-1.00145	-0.000675888	1	0.000525706	39	10.3983	6.76865e-07
2	0	0	1	0	142.087	-1.01044	-1.01004	-0.000802432	1	0.000524374	39	12.1981	8.10492e-07
2	0	0	1	0	143.887	-1.01944	-1.01916	-0.000989309	1	0.000522779	39	13.9977	1.00826e-06
2	0	0	0	0	145.686	-1.02844	-1.02798	-0.00113699	1	0.000520851	39	15.7975	1.1688e-06
2	0	0	0	0	147.486	-1.03743	-1.037	-0.00137192	1	0.000518629	39	17.5971	1.42269e-06
2	0	0	1	0	149.286	-1.04643	-1.04652	-0.00158469	1	0.000516007	39	19.3969	1.65841e-06
2	0	0	1	0	151.085	-1.05543	-1.0547	-0.00176746	1	0.000513003	39	21.1965	1.86415e-06
2	0	0	0	0	152.885	-1.06443	-1.0643	-0.00192936	1	0.000509685	39	22.9963	2.05341e-06
2	0	0	0	0	154.685	-1.07343	-1.07325	-0.00215141	1	0.000506013	39	24.7959	2.309e-06
2	0	0	1	0	156.485	-1.08243	-1.08184	-0.00240303	1	0.000501894	39	26.5957	2.59971e-06
2	0	0	1	0	158.284	-1.09143	-1.09121	-0.00263265	1	0.00049737	39	28.3953	2.87278e-06
2	0	0	0	0	160.084	-1.10042	-1.0998	-0.00304716	1	0.000492192	39	30.1951	3.35127e-06
2	0	0	1	0	161.884	-1.10942	-1.10929	-0.00339055	1	0.000486436	39	31.9948	3.76112e-06
2	0	0	1	0	163.683	-1.11842	-1.11799	-0.00376995	1	0.000479991	39	33.7945	4.21478e-06
2	0	0	1	0	165.483	-1.12742	-1.12719	-0.00418792	1	0.000472852	39	35.5942	4.72058e-06
2	0	0	0	0	167.283	-1.13642	-1.13582	-0.00462927	1	0.000464982	39	37.3939	5.258e-06
2	0	0	1	0	169.082	-1.14542	-1.14458	-0.00512221	1	0.000456202	39	39.1936	5.86278e-06
2	0	0	1	0	170.882	-1.15442	-1.15433	-0.00567568	1	0.00044652	39	40.9933	6.5516e-06
2	0	0	0	0	172.682	-1.16341	-1.16336	-0.00646385	1	0.000435627	39	42.7931	7.51979e-06
2	0	0	0	0	174.482	-1.17241	-1.17202	-0.00728194	1	0.000423342	39	44.5927	8.53456e-06
2	0	0	1	0	176.281	-1.18141	-1.181	-0.00850537	1	0.000409115	39	46.3925	1.00448e-05
2	0	0	1	0	178.081	-1.19041	-1.19011	-0.010288	1	0.000392185	39	48.1921	1.22439e-05
2	0	0	0	0	179.881	-1.19941	-1.19918	-0.0129729	1	0.000371444	39	49.9919	1.55569e-05
2	0	0	0	0	181.68	-1.20841	-1.20796	-0.0179336	1	0.000344235	39	51.7915	2.1663e-05
2	0	0	1	0	183.48	-1.21741	-1.21671	-0.0283994	1	0.000303228	39	53.5913	3.45537e-05
2	0	0	1	0	185.28	-1.2264	-1.22592	-0.0429382	1	0.0002395	39	55.3909	5.26389e-05
2	0	0	0	0	187.08	-1.2354	-1.23563	-0.0593815	1	0.000146838	39	57.1907	7.33737e-05
2	0	0	0	0	188.879	-1.2444	-1.24411	-0.0725672	1	2.76706e-05	39	58.9903	9.02819e-05
2	0	0	1	0	190.679	-1.2534	-1.25314	-0.0880951	1	-0.000116494	39	60.7901	0.000110395
2	0	0	1	0	192.479	-1.2624	-1.26228	-0.108959	1	-0.000291453	39	62.5898	0.000137538
2	0	0	0	0	194.278	-1.2714	-1.27116	-0.137207	1	-0.000511003	39	64.3895	0.000174411
2	0	0	1	0	196.078	-1.28039	-1.27988	-0.182158	1	-0.000797323	39	66.1892	0.000233141
2	0	0	1	0	197.878	-1.28939	-1.2892	-0.24526	1	-0.00117792	39	67.9889	0.000316189
2	0	0	0	0	199.678	-1.29839	-1.29819	-0.338209	1	-0.00169582	39	69.7887	0.000439059
2	0	0	1	1	201.118	-1.29449	-1.29499	-0.340858	2	-0.00220014	39	71.2289	0.000441406
2	0	0	1	1	202.917	-1.28549	-1.28552	-0.301426	2	-0.00277889	39	73.0285	0.000387489
2	0	0	0	1	204.717	-1.2765	-1.27667	-0.269699	2	-0.00329223	39	74.8283	0.000344317
2	0	0	0	1	206.517	-1.2675	-1.26825	-0.238253	2	-0.00374776	39	76.6279	0.000302163
2	0	0	1	1	208.317	-1.2585	-1.25877	-0.21396	2	-0.00415313	39	78.4277	0.000269327
2	0	0	1	1	210.116	-1.2495	-1.24971	-0.194699	2	-0.00452033	39	80.2273	0.000243318
2	0	0	0	1	211.916	-1.2405	-1.24081	-0.178034	2	-0.00485512	39	82.0271	0.000220908
2	0	0	1	1	213.716	-1.2315	-1.23225	-0.162555	2	-0.00516063	39	83.8268	0.000200308
2	0	0	1	1	215.515	-1.2225	-1.22281	-0.148203	2	-0.00544046	39	85.6265	0.000181225
2	0	0	1	1	217.315	-1.21351	-1.2139	-0.136658	2	-0.00569679	39	87.4262	0.000165889
2	0	0	0	1	219.115	-1.20451	-1.20477	-0.124345	2	-0.00593176	39	89.2259	0.000149807
2	0	0	1	1	220.914	-1.19551	-1.19557	-0.112909	2	-0.00614525	39	91.0256	0.00013499
2	0	0	1	1	222.714	-1.18651	-1.18724	-0.10134	2	-0.00633855	39	92.8253	0.000120315
2	0	0	0	1	224.514	-1.17751	-1.17777	-0.0899893	2	-0.00651146	39	94.6251	0.000105987
2	0	0	0	1	226.314	-1.16851	-1.16863	-0.0792884	2	-0.00666382	39	96.4247	9.26587e-05
2	0	0	1	1	228.113	-1.15951	-1.15966	-0.0682917	2	-0.0067968	39	98.2245	7.91951e-05
2	0	0	1	1	229.913	-1.15052	-1.15067	-0.0580868	2	-0.00691033	39	100.024	6.68386e-05
2	0	0	0	1	231.713	-1.14152	-1.14179	-0.0488023	2	-0.0070067	39	101.824	5.57222e-05
2	0	0	0	1	233.512	-1.13252	-1.1328	-0.0405066	2	-0.00708682	39	103.623	4.58857e-05
2	0	0	1	1	235.312	-1.12352	-1.12383	-0.0328012	2	-0.00715267	39	105.423	3.68628e-05
2	0	0	1	1	237.112	-1.11452	-1.11453	-0.0266162	2	-0.00720591	39	107.223	2.96645e-05
2	0	0	0	1	238.912	-1.10552	-1.10557	-0.0214111	2	-0.00724885	39	109.023	2.36714e-05
2	0	0	1	1	240.711	-1.09652	-1.09681	-0.0168912	2	-0.00728309	39	110.822	1.85265e-05
2	0	0	1	1	242.511	-1.08753	-1.08757	-0.0133163	2	-0.0073102	39	112.622	1.44825e-05
2	0	0	1	1	244.311	-1.07853	-1.07908	-0.0102652	2	-0.0073314	39	114.422	1.10769e-05
2	0	0	0	1	246.11	-1.06953	-1.06968	-0.00767575	2	-0.00734746	39	116.221	8.2106e-06
2	0	0	1	1	247.91	-1.06053	-1.06089	-0.00561297	2	-0.0073594	39	118.021	5.95475e-06
2	0	0	1	1	249.71	-1.05153	-1.05219	-0.004044	2	-0.00736805	39	119.821	4.25504e-06
2	0	0	0	1	251.51	-1.04253	-1.04263	-0.00255702	2	-0.00737389	39	121.621	2.66602e-06
2	0	0	0	1	253.309	-1.03354	-1.03412	-0.00121776	2	-0.00737726	39	123.42	1.25932e-06
2	0	0	1	1	255.109	-1.02454	-1.02518	-6.74999e-05	2	-0.00737839	39	125.22	6.91998e-08
2	1	0	1	1	256.909	-1.01554	-1.01624	0.000905524	2	-0.00737758	39	1.3998	-9.20225e-07
2	1	0	0	1	258.708	-1.00654	-1.00682	0.00176713	2	-0.00737512	39	3.1996	-1.77918e-06
2	1	0	0	1	260.508	-0.997541	-0.998049	0.00267437	2	-0.00737115	39	4.9992	-2.66916e-06
2	1	0	1	1	262.308	-0.988542	-0.988815	0.00380476	2	-0.00736539	39	6.799	-3.7622e-06
2	1	0	1	1	264.107	-0.979544	-0.979902	0.00544763	2	-0.00735719	39	8.5986	-5.33814e-06
2	1	0	0	1	265.907	-0.970545	-0.971006	0.00775342	2	-0.00734538	39	10.3984	-7.52862e-06
2	1	0	1	1	267.707	-0.961546	-0.961681	0.0108461	2	-0.00732878	39	12.1981	-1.04305e-05
2	1	0	1	1	269.507	-0.952548	-0.952508	0.015003	2	-0.00730581	39	13.9978	-1.42904e-05
2	1	0	1	1	271.306	-0.94355	-0.943815	0.0198261	2	-0.0072745	39	15.7975	-1.87121e-05
2	1	0	0	1	273.106	-0.934551	-0.935044	0.0244948	2	-0.00723454	39	17.5972	-2.29038e-05
2	1	0	1	1	274.906	-0.925553	-0.925995	0.0287227	2	-0.00718666	39	19.3969	-2.65971e-05
2	1	0	1	1	276.705	-0.916554	-0.917049	0.0324637	2	-0.0071315	39	21.1966	-2.97708e-05
2	1	0	0	1	278.505	-0.907556	-0.90788	0.0352141	2	-0.00706997	39	22.9964	-3.19702e-05
2	1	0	0	1	280.305	-0.898557	-0.898626	0.0378617	2	-0.00700374	39	24.796	-3.40235e-05
2	1	0	1	1	282.105	-0.889558	-0.889999	0.0398333	2	-0.00693359	39	26.5958	-3.54516e-05
2	1	0	1	1	283.904	-0.88056	-0.880782	0.0410377	2	-0.00686082	39	28.3954	-3.61452e-05
2	1	0	0	1	285.704	-0.871561	-0.871973	0.0410997	2	-0.0067867	39	30.1952	-3.58378e-05
2	1	0	0	1	287.504	-0.862563	-0.863183	0.0400136	2	-0.00671344	39	31.9948	-3.4539e-05
2	1	0	1	1	289.303	-0.853564	-0.85386	0.0373007	2	-0.00664375	39	33.7946	-3.18496e-05
2	1	0	1	1	291.103	-0.844566	-0.844404	0.0337141	2	-0.00657993	39	35.5942	-2.84683e-05
2	1	0	0	1	292.903	-0.835567	-0.836318	0.0292574	2	-0.00652335	39	37.394	-2.44685e-05
2	1	0	0	1	294.702	-0.826569	-0.826795	0.0243945	2	-0.00647515	39	39.1936	-2.01693e-05
2	1	0	1	1	296.502	-0.81757	-0.818464	0.0203146	2	-0.00643504	39	40.9934	-1.66268e-05
2	1	0	1	1	298.302	-0.808572	-0.808816	0.0164468	2	-0.00640226	39	42.7931	-1.33024e-05
2	1	0	0	1	300.102	-0.799573	-0.800051	0.0134446	2	-0.00637542	39	44.5928	-1.07564e-05
2	1	0	1	1	301.901	-0.790575	-0.791063	0.0107792	2	-0.00635387	39	46.3926	-8.52706e-06
2	1	0	1	1	303.701	-0.781576	-0.781647	0.00868842	2	-0.00633633	39	48.1922	-6.79128e-06
2	1	0	0	1	305.501	-0.772578	-0.772774	0.00730002	2	-0.00632201	39	49.992	-5.64127e-06
2	1	0	0	1	307.3	-0.763579	-0.764262	0.0060548	2	-0.00631012	39	51.7916	-4.62746e-06
2	1	0	1	1	309.1	-0.75458	-0.755129	0.00509289	2	-0.00630015	39	53.5914	-3.84579e-06
2	1	0	1	1	310.9	-0.745582	-0.74566	0.00446453	2	-0.00629159	39	55.391	-3.32902e-06
2	1	0	0	1	312.7	-0.736583	-0.736992	0.00405357	2	-0.00628389	39	57.1908	-2.98744e-06
2	1	0	0	1	314.499	-0.727585	-0.728535	0.00374533	2	-0.00627689	39	58.9904	-2.72861e-06
2	1	0	1	1	316.299	-0.718586	-0.718724	0.00348369	2	-0.00627042	39	60.7902	-2.50381e-06
2	1	0	1	1	318.099	-0.709588	-0.710016	0.00331565	2	-0.00626433	39	62.5898	-2.35416e-06
2	1	0	0	1	319.898	-0.700589	-0.701302	0.00313941	2	-0.00625856	39	64.3896	-2.20167e-06
2	1	0	1	1	321.698	-0.691591	-0.692095	0.00308183	2	-0.00625296	39	66.1892	-2.13292e-06
2	1	0	1	1	323.498	-0.682592	-0.682923	0.00291964	2	-0.00624757	39	67.989	-1.99389e-06
2	1	0	1	1	325.297	-0.673594	-0.67422	0.00301447	2	-0.00624228	39	69.7887	-2.03241e-06
2	1	0	0	1	327.097	-0.664595	-0.664708	0.00284409	2	-0.00623711	39	71.5884	-1.89049e-06
2	1	0	1	1	328.897	-0.655597	-0.655709	0.00269827	2	-0.00623215	39	73.3882	-1.76928e-06
2	1	0	1	1	330.697	-0.646598	-0.647191	0.00253521	2	-0.0062274	39	75.1878	-1.64077e-06
2	1	0	0	1	332.496	-0.6376	-0.637789	0.00257229	2	-0.00622276	39	76.9876	-1.64058e-06
2	1	0	0	1	334.296	-0.628601	-0.628989	0.00259204	2	-0.00621815	39	78.7872	-1.63037e-06
2	1	0	1	1	336.096	-0.619602	-0.619964	0.00255673	2	-0.0062136	39	80.587	-1.58508e-06
2	1	0	1	1	337.895	-0.610604	-0.611209	0.00246014	2	-0.00620918	39	82.3866	-1.50366e-06
2	1	0	0	1	339.695	-0.601605	-0.602293	0.00242613	2	-0.0062048	39	84.1864	-1.46124e-06
2	1	0	0	1	341.495	-0.592607	-0.592734	0.00233338	2	-0.00620048	39	85.986	-1.38307e-06
2	1	0	1	1	343.295	-0.583608	-0.583827	0.00238144	2	-0.00619623	39	87.7858	-1.39035e-06
2	1	0	1	1	345.094	-0.57461	-0.575041	0.00231436	2	-0.006192	39	89.5854	-1.33085e-06
2	1	0	0	1	346.894	-0.565611	-0.566597	0.00230715	2	-0.00618784	39	91.3852	-1.30722e-06
2	1	0	1	1	348.694	-0.556613	-0.557095	0.00227649	2	-0.00618368	39	93.1848	-1.26822e-06
2	1	0	1	1	350.493	-0.547614	-0.548114	0.00228731	2	-0.00617958	39	94.9846	-1.25371e-06
2	1	0	1	1	352.293	-0.538616	-0.539212	0.00220501	2	-0.00617554	39	96.7843	-1.18897e-06
2	1	0	0	1	354.093	-0.529617	-0.530194	0.00221924	2	-0.00617159	39	98.584	-1.17663e-06
2	1	0	1	1	355.892	-0.520619	-0.521207	0.00217903	2	-0.00616762	39	100.384	-1.13573e-06
2	1	0	1	1	357.692	-0.51162	-0.511997	0.00216202	2	-0.0061637	39	102.183	-1.10695e-06
2	1	0	0	1	359.492	-0.502622	-0.50328	0.00213289	2	-0.00615981	39	103.983	-1.07344e-06
2	1	0	0	1	361.292	-0.493623	-0.493954	0.0021277	2	-0.00615595	39	105.783	-1.05099e-06
2	1	0	1	1	363.091	-0.484624	-0.485044	0.00216033	2	-0.00615207	39	107.583	-1.04786e-06
2	1	0	1	1	364.891	-0.475626	-0.476133	0.00214149	2	-0.00614815	39	109.382	-1.01963e-06
2	1	0	0	1	366.691	-0.466627	-0.467243	0.00211876	2	-0.00614426	39	111.182	-9.89975e-07
2	1	0	0	1	368.49	-0.457629	-0.458273	0.00214447	2	-0.00614038	39	112.982	-9.82753e-07
2	1	0	1	1	370.29	-0.44863	-0.448925	0.00210372	2	-0.00613648	39	114.781	-9.4441e-07
2	1	0	1	1	372.09	-0.439632	-0.440242	0.00213851	2	-0.0061327	39	116.581	-9.41462e-07
2	1	0	0	1	373.89	-0.430633	-0.431101	0.00206988	2	-0.00612897	39	118.381	-8.92326e-07
2	1	0	0	1	375.689	-0.421635	-0.421953	0.0019984	2	-0.00612535	39	120.18	-8.43228e-07
2	1	0	1	1	377.489	-0.412636	-0.413021	0.0019789	2	-0.00612179	39	121.98	-8.17327e-07
2	1	0	1	1	379.289	-0.403638	-0.404278	0.00203427	2	-0.00611825	39	123.78	-8.22409e-07
2	1	0	0	1	381.088	-0.394639	-0.395223	0.00204844	2	-0.00611465	39	125.58	-8.0959e-07
2	1	0	1	1	382.888	-0.385641	-0.385864	0.00195569	2	-0.00611113	39	127.379	-7.5463e-07
2	1	0	1	1	384.688	-0.376642	-0.377556	0.00190945	2	-0.00610765	39	129.179	-7.20924e-07
2	1	0	0	1	386.488	-0.367644	-0.367963	0.00188888	2	-0.00610418	39	130.979	-6.95036e-07
2	1	0	0	1	388.287	-0.358645	-0.359088	0.0019177	2	-0.00610074	39	132.778	-6.88624e-07
2	1	0	1	1	390.087	-0.349646	-0.349867	0.0019015	2	-0.00609731	39	134.578	-6.65272e-07
2	1	0	1	1	391.887	-0.340648	-0.34088	0.00189864	2	-0.00609388	39	136.378	-6.4721e-07
2	1	0	0	1	393.686	-0.331649	-0.332181	0.00190003	2	-0.00609045	39	138.178	-6.31152e-07
2	1	0	0	1	395.486	-0.322651	-0.32306	0.00194484	2	-0.00608702	39	139.977	-6.28302e-07
2	1	0	1	1	397.286	-0.313652	-0.31346	0.0018919	2	-0.00608351	39	141.777	-5.93036e-07
2	1	0	1	1	399.085	-0.304654	-0.305339	0.00188369	2	-0.00608007	39	143.577	-5.75163e-07
2	1	0	1	1	400.526	-0.302554	-0.302163	0.0016112	2	-0.00607744	39	145.017	-4.86845e-07
2	1	0	1	1	402.325	-0.311553	-0.311607	0.00148204	2	-0.00607465	39	146.817	-4.61813e-07
2	1	0	0	1	404.125	-0.320551	-0.320329	0.00137185	2	-0.00607208	39	148.616	-4.39444e-07
2	1	0	1	1	405.925	-0.329549	-0.329126	0.00127878	2	-0.0060697	39	150.416	-4.20881e-07
2	1	0	1	1	407.725	-0.338548	-0.338384	0.00120758	2	-0.00606745	39	152.216	-4.08625e-07
2	1	0	0	1	409.524	-0.347547	-0.3474	0.00113125	2	-0.00606533	39	154.016	-3.92998e-07
2	1	0	0	1	411.324	-0.356545	-0.356344	0.0010927	2	-0.00606333	39	155.815	-3.89378e-07
2	1	0	1	1	413.124	-0.365544	-0.365029	0.00106526	2	-0.00606139	39	157.615	-3.88851e-07
2	1	0	1	1	414.923	-0.374542	-0.374141	0.00103583	2	-0.00605944	39	159.415	-3.87546e-07
2	1	0	0	1	416.723	-0.383541	-0.383049	0.00104698	2	-0.00605755	39	161.214	-4.01044e-07
2	1	0	0	1	418.523	-0.392539	-0.392181	0.00110882	2	-0.00605559	39	163.014	-4.3486e-07
2	1	0	1	1	420.323	-0.401538	-0.401099	0.00103125	2	-0.00605367	39	164.814	-4.13632e-07
2	1	0	1	1	422.122	-0.410537	-0.4106	0.000995548	2	-0.00605188	39	166.613	-4.08772e-07
2	1	0	0	1	423.922	-0.419535	-0.419259	0.00101443	2	-0.00605009	39	168.413	-4.25311e-07
2	1	0	1	1	425.722	-0.428534	-0.428082	0.00100084	2	-0.00604828	39	170.213	-4.28442e-07
2	1	0	1	1	427.521	-0.437532	-0.437592	0.000968882	2	-0.00604654	39	172.013	-4.23975e-07
2	1	0	1	1	429.321	-0.44653	-0.446184	0.000974962	2	-0.0060448	39	173.812	-4.35013e-07
2	1	0	0	1	431.121	-0.455529	-0.45503	0.000958683	2	-0.00604311	39	175.612	-4.36229e-07
2	1	0	1	1	432.921	-0.464528	-0.463917	0.000897701	2	-0.00604145	39	177.412	-4.16459e-07
2	1	0	1	1	434.72	-0.473526	-0.473282	0.000936079	2	-0.00603982	39	179.211	-4.43029e-07
2	1	0	0	1	436.52	-0.482525	-0.482454	0.000843116	2	-0.00603818	39	181.011	-4.06764e-07
2	1	0	0	1	438.32	-0.491523	-0.491094	0.000873888	2	-0.00603654	39	182.811	-4.29161e-07
2	1	0	1	1	440.119	-0.500522	-0.500366	0.000912352	2	-0.00603496	39	184.611	-4.5651e-07
2	1	0	1	1	441.919	-0.50952	-0.509003	0.000852538	2	-0.00603341	39	186.41	-4.33944e-07
2	1	0	0	1	443.719	-0.518519	-0.518588	0.000841258	2	-0.00603185	39	188.21	-4.36266e-07
2	1	0	0	1	445.518	-0.527517	-0.527113	0.000807547	2	-0.00603038	39	190.01	-4.25668e-07
2	1	0	1	1	447.318	-0.536516	-0.536059	0.000766706	2	-0.00602897	39	191.809	-4.10999e-07
2	1	0	1	1	449.118	-0.545515	-0.545155	0.000819346	2	-0.00602755	39	193.609	-4.4667e-07
2	1	0	0	1	450.918	-0.554513	-0.554119	0.000730229	2	-0.00602616	39	195.409	-4.04634e-07
2	1	0	1	1	452.717	-0.563511	-0.563323	0.000731024	2	-0.00602487	39	197.208	-4.11802e-07
2	1	0	1	1	454.517	-0.57251	-0.572268	0.000666568	2	-0.00602354	39	199.008	-3.81455e-07
2	1	0	1	1	456.317	-0.581509	-0.58111	0.000633469	2	-0.00602232	39	200.808	-3.68115e-07
2	1	0	0	1	458.116	-0.590507	-0.590409	0.000684461	2	-0.00602108	39	202.608	-4.04112e-07
2	1	0	1	1	459.916	-0.599506	-0.599148	0.000632598	2	-0.00601987	39	204.407	-3.7902e-07
2	1	0	1	1	461.716	-0.608504	-0.608135	0.000636099	2	-0.00601867	39	206.207	-3.86834e-07
2	1	0	0	1	463.516	-0.617503	-0.617065	0.000736755	2	-0.00601748	39	208.007	-4.54626e-07
2	1	0	0	1	465.315	-0.626501	-0.626043	0.000735286	2	-0.00601626	39	209.806	-4.60321e-07
2	1	0	1	1	467.115	-0.6355	-0.635399	0.000685239	2	-0.00601505	39	211.606	-4.354e-07
2	1	0	1	1	468.915	-0.644498	-0.64418	0.00067344	2	-0.00601383	39	213.406	-4.33817e-07
2	1	0	0	1	470.714	-0.653497	-0.653346	0.000708058	2	-0.00601264	39	215.206	-4.62607e-07
2	1	0	0	1	472.514	-0.662495	-0.662398	0.000621189	2	-0.0060115	39	217.005	-4.11474e-07
2	1	0	1	1	474.314	-0.671494	-0.670837	0.000545859	2	-0.00601037	39	218.805	-3.66182e-07
2	1	0	1	1	476.113	-0.680493	-0.679997	0.000493607	2	-0.00600931	39	220.605	-3.35652e-07
2	1	0	0	1	477.913	-0.689491	-0.689415	0.000539289	2	-0.00600829	39	222.404	-3.71794e-07
2	1	0	0	1	479.713	-0.69849	-0.698237	0.000509938	2	-0.00600734	39	224.204	-3.56057e-07
2	1	0	1	1	481.513	-0.707488	-0.707079	0.000536178	2	-0.00600645	39	226.004	-3.7912e-07
2	1	0	1	1	483.312	-0.716487	-0.716506	0.000498446	2	-0.00600556	39	227.803	-3.5714e-07
2	1	0	0	1	485.112	-0.725485	-0.725572	0.000400514	2	-0.00600473	39	229.603	-2.90602e-07
2	1	0	1	1	486.912	-0.734484	-0.734321	0.000382973	2	-0.00600404	39	231.403	-2.81225e-07
2	1	0	1	1	488.711	-0.743482	-0.743159	0.000274619	2	-0.00600343	39	233.203	-2.04085e-07
2	1	0	0	1	490.511	-0.752481	-0.752265	0.000258196	2	-0.00600288	39	235.002	-1.94231e-07
2	1	0	0	1	492.311	-0.761479	-0.761119	0.000304612	2	-0.00600235	39	236.802	-2.31846e-07
2	1	0	1	1	494.111	-0.770478	-0.77034	0.000220984	2	-0.0060019	39	238.602	-1.70233e-07
2	1	0	1	1	495.91	-0.779476	-0.779635	0.000214113	2	-0.00600146	39	240.401	-1.6693e-07
2	1	0	0	1	497.71	-0.788475	-0.788341	9.833e-05	2	-0.00600114	39	242.201	-7.75175e-08
2	1	0	0	1	499.51	-0.797473	-0.797427	7.55105e-05	2	-0.00600094	39	244.001	-6.02141e-08
2	1	0	1	1	501.309	-0.806472	-0.806158	8.39813e-05	2	-0.00600075	39	245.801	-6.77022e-08
2	1	0	1	1	503.109	-0.815471	-0.814867	3.83425e-05	2	-0.00600067	39	0.000000000000000E+000	-3.1244e-08
2	0	0	0	1	504.909	-0.824469	-0.824367	2.8748e-05	2	-0.00600066	39	0.2	-2.36989e-08
2	1	0	1	1	506.708	-0.833468	-0.833648	-5.13893e-05	2	-0.00600074	39	1.3997	4.28405e-08
2	0	0	1	1	508.508	-0.842466	-0.842209	-0.000102291	2	-0.00600091	39	3.1994	8.61503e-08
2	0	0	1	1	510.308	-0.851465	-0.851009	-0.000200707	2	-0.00600113	39	4.9991	1.70803e-07
2	0	0	0	1	512.108	-0.860463	-0.860204	-0.000297898	2	-0.00600153	39	6.7988	2.56253e-07
2	0	0	1	1	513.907	-0.869462	-0.869205	-0.000298201	2	-0.00600207	39	8.5986	2.59198e-07
2	0	0	1	1	515.707	-0.87846	-0.878251	-0.00037647	2	-0.00600272	39	10.3982	3.30635e-07
2	0	0	0	1	517.507	-0.887459	-0.887055	-0.000440131	2	-0.00600346	39	12.198	3.9042e-07
2	0	0	0	1	519.306	-0.896457	-0.896074	-0.000505564	2	-0.00600432	39	13.9976	4.53023e-07
2	0	0	1	1	521.106	-0.905456	-0.905149	-0.000576918	2	-0.00600526	39	15.7974	5.22196e-07
2	0	0	1	1	522.906	-0.914454	-0.914095	-0.00067619	2	-0.00600638	39	17.597	6.18102e-07
2	0	0	0	1	524.706	-0.923453	-0.922971	-0.000754243	2	-0.0060076	39	19.3968	6.96144e-07
2	0	0	0	1	526.505	-0.932451	-0.932034	-0.000832123	2	-0.00600906	39	21.1964	7.75567e-07
2	0	0	1	1	528.305	-0.94145	-0.941382	-0.000980751	2	-0.00601072	39	22.9962	9.23262e-07
2	0	0	1	1	530.105	-0.950449	-0.950149	-0.00110163	2	-0.00601262	39	24.7958	1.04672e-06
2	0	0	0	1	531.904	-0.959447	-0.959009	-0.00125964	2	-0.00601473	39	26.5956	1.20801e-06
2	0	0	1	1	533.704	-0.968446	-0.968212	-0.00143623	2	-0.00601713	39	28.3953	1.39057e-06
2	0	0	1	1	535.504	-0.977444	-0.97733	-0.00156265	2	-0.00601986	39	30.195	1.52722e-06
2	0	0	1	1	537.303	-0.986443	-0.985974	-0.00177794	2	-0.00602285	39	31.9947	1.753e-06
2	0	0	0	1	539.103	-0.995441	-0.995018	-0.00198774	2	-0.00602624	39	33.7944	1.97784e-06
2	0	0	1	1	540.903	-1.00444	-1.00411	-0.00212225	2	-0.00602994	39	35.5941	2.13097e-06
2	0	0	1	1	542.703	-1.01344	-1.01288	-0.00230709	2	-0.00603394	39	37.3938	2.3368e-06
2	0	0	0	1	544.502	-1.02244	-1.02198	-0.00256394	2	-0.0060383	39	39.1936	2.6203e-06
2	0	0	0	1	546.302	-1.03144	-1.03076	-0.00269065	2	-0.00604301	39	40.9932	2.77343e-06
2	0	0	1	1	548.102	-1.04043	-1.04013	-0.00296941	2	-0.00604814	39	42.793	3.08856e-06
2	0	0	1	1	549.901	-1.04943	-1.04903	-0.00307863	2	-0.00605358	39	44.5926	3.22957e-06
2	0	0	0	1	551.701	-1.05843	-1.05814	-0.00329632	2	-0.00605935	39	46.3924	3.48798e-06
2	0	0	0	1	553.501	-1.06743	-1.06731	-0.00352019	2	-0.00606548	39	48.192	3.75713e-06
2	0	0	1	1	555.301	-1.07643	-1.07603	-0.00365719	2	-0.00607198	39	49.9918	3.93527e-06
2	0	0	1	1	557.1	-1.08543	-1.08498	-0.00384973	2	-0.00607877	39	51.7914	4.1769e-06
2	0	0	0	1	558.9	-1.09442	-1.09395	-0.00406211	2	-0.00608596	39	53.5912	4.44373e-06
2	0	0	0	1	560.7	-1.10342	-1.10331	-0.00432388	2	-0.00609355	39	55.3908	4.77057e-06
2	0	0	1	1	562.499	-1.11242	-1.11181	-0.00454711	2	-0.00610149	39	57.1906	5.05551e-06
2	0	0	1	1	564.299	-1.12142	-1.12101	-0.00480852	2	-0.00610995	39	58.9903	5.3904e-06
2	0	0	0	1	566.099	-1.13042	-1.13038	-0.00508138	2	-0.00611886	39	60.79	5.74387e-06
2	0	0	1	1	567.899	-1.13942	-1.13907	-0.00532933	2	-0.00612818	39	62.5898	6.07046e-06
2	0	0	1	1	569.698	-1.14842	-1.14831	-0.00558129	2	-0.00613801	39	64.3894	6.40903e-06
2	0	0	1	1	571.498	-1.15741	-1.15724	-0.00594874	2	-0.00614846	39	66.1892	6.88411e-06
2	0	0	0	1	573.298	-1.16641	-1.16592	-0.00640041	2	-0.00615959	39	67.9888	7.46235e-06
2	0	0	1	1	575.097	-1.17541	-1.17464	-0.0069807	2	-0.00617154	39	69.7886	8.19983e-06
2	0	0	1	1	576.897	-1.18441	-1.18458	-0.00799617	2	-0.00618484	39	71.5882	9.47207e-06
2	0	0	0	1	578.697	-1.19341	-1.19317	-0.0106029	2	-0.00620147	39	73.388	1.2651e-05
2	0	0	0	1	580.496	-1.20241	-1.20193	-0.0139281	2	-0.00622361	39	75.1876	1.67405e-05
2	0	0	1	1	582.296	-1.21141	-1.21141	-0.0169916	2	-0.00625151	39	76.9874	2.05838e-05
2	0	0	1	1	584.096	-1.2204	-1.21953	-0.0194315	2	-0.00628429	39	78.787	2.36972e-05
2	0	0	0	1	585.896	-1.2294	-1.22933	-0.0217508	2	-0.00632124	39	80.5868	2.67389e-05
2	0	0	0	1	587.695	-1.2384	-1.23803	-0.0240997	2	-0.00636247	39	82.3864	2.98361e-05
2	0	0	1	1	589.495	-1.2474	-1.24698	-0.0270768	2	-0.00640855	39	84.1862	3.37643e-05
2	0	0	1	1	591.295	-1.2564	-1.2557	-0.031053	2	-0.00646053	39	85.9859	3.89933e-05
2	0	0	0	1	593.094	-1.2654	-1.26481	-0.0369386	2	-0.00652159	39	87.7856	4.67204e-05
2	0	0	1	1	594.894	-1.2744	-1.27434	-0.0458079	2	-0.00659546	39	89.5853	5.83749e-05
2	0	0	1	1	596.694	-1.28339	-1.283	-0.0570851	2	-0.00668746	39	91.385	7.324e-05
2	0	0	1	1	598.493	-1.29239	-1.29197	-0.0752956	2	-0.00680543	39	93.1847	9.728e-05
2	0	0	1	0	600.024	-1.30004	-1.30016	-0.0955007	2	-0.0069353	39	94.715	0.000124167
2	0	0	1	0	601.733	-1.29149	-1.29179	-0.089039	3	-0.00709515	39	96.4246	0.00011502
2	0	0	0	0	603.533	-1.28249	-1.2824	-0.0828907	3	-0.00725007	39	98.2244	0.000106299
2	0	0	0	0	605.333	-1.2735	-1.27386	-0.0768915	3	-0.00739382	39	100.024	9.79488e-05
2	0	0	1	0	607.133	-1.2645	-1.2646	-0.0706581	3	-0.00752652	39	101.824	8.9354e-05
2	0	0	1	0	608.932	-1.2555	-1.25603	-0.0662825	3	-0.00764942	39	103.623	8.32531e-05
2	0	0	0	0	610.732	-1.2465	-1.24674	-0.0620145	3	-0.00776472	39	105.423	7.73161e-05
2	0	0	1	0	612.532	-1.2375	-1.23763	-0.0581467	3	-0.00787275	39	107.223	7.19639e-05
2	0	0	1	0	614.331	-1.2285	-1.22871	-0.054639	3	-0.00797417	39	109.023	6.71353e-05
2	0	0	1	0	616.131	-1.2195	-1.21997	-0.0511155	3	-0.00806926	39	110.822	6.23596e-05
2	0	0	0	0	617.931	-1.21051	-1.21093	-0.047559	3	-0.00815831	39	112.622	5.75908e-05
2	0	0	1	0	619.731	-1.20151	-1.2018	-0.0440386	3	-0.00824075	39	114.422	5.29258e-05
2	0	0	1	0	621.53	-1.19251	-1.19259	-0.0406073	3	-0.00831681	39	116.221	4.84279e-05
2	0	0	0	0	623.33	-1.18351	-1.18395	-0.0367917	3	-0.00838634	39	118.021	4.35596e-05
2	0	0	0	0	625.13	-1.17451	-1.17464	-0.0324765	3	-0.00844868	39	119.821	3.81484e-05
2	0	0	1	0	626.929	-1.16551	-1.16602	-0.0284584	3	-0.0085035	39	121.621	3.31831e-05
2	0	0	1	0	628.729	-1.15651	-1.15673	-0.0244457	3	-0.00855112	39	123.42	2.82771e-05
2	0	0	0	0	630.529	-1.14752	-1.14796	-0.0206906	3	-0.00859163	39	125.22	2.37519e-05
2	0	0	0	0	632.328	-1.13852	-1.139	-0.0170812	3	-0.00862541	39	127.02	1.94555e-05
2	0	0	1	0	634.128	-1.12952	-1.13017	-0.014052	3	-0.00865329	39	128.819	1.58812e-05
2	0	0	1	0	635.928	-1.12052	-1.12119	-0.011419	3	-0.00867608	39	130.619	1.28028e-05
2	0	0	0	0	637.728	-1.11152	-1.11199	-0.00914764	3	-0.00869462	39	132.419	1.01721e-05
2	0	0	1	0	639.527	-1.10252	-1.10296	-0.00750246	3	-0.00870955	39	134.218	8.27494e-06
2	0	0	1	0	641.327	-1.09353	-1.09386	-0.00600859	3	-0.00872168	39	136.018	6.57256e-06
2	0	0	1	0	643.127	-1.08453	-1.08493	-0.00483819	3	-0.00873143	39	137.818	5.24911e-06
2	0	0	0	0	644.926	-1.07553	-1.07579	-0.0038139	3	-0.00873922	39	139.618	4.10297e-06
2	0	0	1	0	646.726	-1.06653	-1.06735	-0.00282818	3	-0.00874518	39	141.417	3.01865e-06
2	0	0	1	0	648.526	-1.05753	-1.05818	-0.00197478	3	-0.00874949	39	143.217	2.08967e-06
2	0	0	0	0	650.326	-1.04853	-1.0488	-0.00140637	3	-0.00875254	39	145.017	1.475e-06
2	0	0	0	0	652.125	-1.03953	-1.03983	-0.000959315	3	-0.00875462	39	146.816	9.97524e-07
2	0	0	1	0	653.925	-1.03054	-1.03084	-0.000466883	3	-0.00875588	39	148.616	4.81282e-07
2	0	0	1	0	655.725	-1.02154	-1.02183	-0.000203811	3	-0.00875644	39	150.416	2.08261e-07
2	1	0	0	0	657.524	-1.01254	-1.01314	0.000224831	3	-0.00875639	39	0.8	-2.27785e-07
2	1	0	0	0	659.324	-1.00354	-1.00407	0.000721672	3	-0.00875556	39	2.5996	-7.24606e-07
2	1	0	1	0	661.124	-0.994541	-0.994777	0.00142553	3	-0.00875374	39	4.3994	-1.41808e-06
2	1	0	1	0	662.923	-0.985543	-0.986127	0.00229492	3	-0.00875048	39	6.199	-2.26308e-06
2	1	0	0	0	664.723	-0.976544	-0.976851	0.00342971	3	-0.00874535	39	7.9988	-3.35031e-06
2	1	0	0	0	666.523	-0.967546	-0.967675	0.00476252	3	-0.00873799	39	9.7984	-4.60858e-06
2	1	0	1	0	668.323	-0.958547	-0.959008	0.00635241	3	-0.00872809	39	11.5982	-6.09201e-06
2	1	0	1	0	670.122	-0.949548	-0.950146	0.00795374	3	-0.00871521	39	13.3979	-7.55721e-06
2	1	0	0	0	671.922	-0.94055	-0.940969	0.00981439	3	-0.00869932	39	15.1976	-9.23503e-06
2	1	0	1	0	673.722	-0.931552	-0.931997	0.0114594	3	-0.00868024	39	16.9973	-1.06801e-05
2	1	0	1	0	675.521	-0.922553	-0.92293	0.0134476	3	-0.00865772	39	18.797	-1.24112e-05
2	1	0	0	0	677.321	-0.913555	-0.913929	0.0154299	3	-0.00863161	39	20.5968	-1.41018e-05
2	1	0	0	0	679.121	-0.904556	-0.905149	0.0171446	3	-0.0086023	39	22.3964	-1.55184e-05
2	1	0	1	0	680.921	-0.895557	-0.896146	0.0180186	3	-0.00857058	39	24.1962	-1.61473e-05
2	1	0	1	0	682.72	-0.886559	-0.886977	0.0177856	3	-0.00853819	39	25.9958	-1.57754e-05
2	1	0	0	0	684.52	-0.87756	-0.877559	0.0168813	3	-0.00850687	39	27.7956	-1.48143e-05
2	1	0	0	0	686.32	-0.868562	-0.868466	0.015395	3	-0.0084778	39	29.5952	-1.337e-05
2	1	0	1	0	688.119	-0.859563	-0.859754	0.0137841	3	-0.00845145	39	31.395	-1.1851e-05
2	1	0	1	0	689.919	-0.850565	-0.850928	0.0119493	3	-0.00842824	39	33.1946	-1.0168e-05
2	1	0	0	0	691.719	-0.841566	-0.841613	0.0101935	3	-0.00840835	39	34.9944	-8.57903e-06
2	1	0	0	0	693.518	-0.832568	-0.833388	0.00837266	3	-0.00839175	39	36.794	-6.97768e-06
2	1	0	1	0	695.318	-0.823569	-0.823923	0.00664526	3	-0.0083783	39	38.5938	-5.47518e-06
2	1	0	1	0	697.118	-0.814571	-0.815022	0.00528654	3	-0.00836763	39	40.3935	-4.30865e-06
2	1	0	0	0	698.918	-0.805572	-0.805792	0.00417363	3	-0.00835922	39	42.1932	-3.36308e-06
2	1	0	1	0	700.717	-0.796574	-0.797257	0.00338435	3	-0.00835244	39	43.9929	-2.6982e-06
2	1	0	1	0	702.517	-0.787575	-0.787748	0.00291765	3	-0.00834681	39	45.7926	-2.29838e-06
2	1	0	0	0	704.317	-0.778577	-0.779068	0.00248045	3	-0.008342	39	47.5924	-1.93244e-06
2	1	0	0	0	706.116	-0.769578	-0.770024	0.00232124	3	-0.0083377	39	49.392	-1.78741e-06
2	1	0	1	0	707.916	-0.760579	-0.76093	0.00211309	3	-0.0083337	39	51.1918	-1.60792e-06
2	1	0	1	0	709.716	-0.751581	-0.752195	0.00210765	3	-0.00832997	39	52.9914	-1.58536e-06
2	1	0	0	0	711.516	-0.742582	-0.743529	0.0019885	3	-0.0083264	39	54.7912	-1.4785e-06
2	1	0	0	0	713.315	-0.733584	-0.734224	0.001868	3	-0.00832294	39	56.5908	-1.37153e-06
2	1	0	1	0	715.115	-0.724585	-0.72511	0.00186982	3	-0.00831953	39	58.3906	-1.35582e-06
2	1	0	1	0	716.915	-0.715587	-0.716149	0.00185698	3	-0.00831616	39	60.1902	-1.32988e-06
2	1	0	0	0	718.714	-0.706588	-0.707009	0.00187868	3	-0.0083128	39	61.99	-1.32824e-06
2	1	0	0	0	720.514	-0.69759	-0.697792	0.00192007	3	-0.00830942	39	63.7896	-1.33981e-06
2	1	0	1	0	722.314	-0.688591	-0.688973	0.00188408	3	-0.00830601	39	65.5894	-1.29808e-06
2	1	0	1	0	724.113	-0.679592	-0.680281	0.00190727	3	-0.00830259	39	67.3891	-1.29748e-06
2	1	0	0	0	725.913	-0.670594	-0.671071	0.00180179	3	-0.00829923	39	69.1888	-1.20913e-06
2	1	0	1	0	727.713	-0.661596	-0.66222	0.00177302	3	-0.008296	39	70.9885	-1.17413e-06
2	1	0	1	0	729.513	-0.652597	-0.652838	0.00184989	3	-0.0082928	39	72.7882	-1.20768e-06
2	1	0	0	0	731.312	-0.643598	-0.643788	0.001811	3	-0.00828962	39	74.588	-1.1659e-06
2	1	0	0	0	733.112	-0.6346	-0.634819	0.00174798	3	-0.0082864	39	76.3876	-1.10965e-06
2	1	0	1	0	734.912	-0.625601	-0.626375	0.00174932	3	-0.00828328	39	78.1874	-1.09573e-06
2	1	0	1	0	736.711	-0.616603	-0.617074	0.0016332	3	-0.00828023	39	79.987	-1.0078e-06
2	1	0	0	0	738.511	-0.607604	-0.607794	0.00168514	3	-0.00827726	39	81.7868	-1.02422e-06
2	1	0	0	0	740.311	-0.598606	-0.599216	0.00169383	3	-0.00827421	39	83.5864	-1.01497e-06
2	1	0	1	0	742.111	-0.589607	-0.589928	0.00165623	3	-0.00827119	39	85.3862	-9.77057e-07
2	1	0	1	0	743.91	-0.580609	-0.58089	0.00170066	3	-0.00826816	39	87.1858	-9.87897e-07
2	1	0	0	0	745.71	-0.57161	-0.572007	0.00167775	3	-0.00826518	39	88.9856	-9.59688e-07
2	1	0	0	0	747.51	-0.562612	-0.563295	0.0016894	3	-0.00826213	39	90.7852	-9.51627e-07
2	1	0	1	0	749.309	-0.553613	-0.55404	0.00167667	3	-0.00825905	39	92.585	-9.28945e-07
2	1	0	1	0	751.109	-0.544614	-0.545239	0.001654	3	-0.00825608	39	94.3847	-9.01827e-07
2	1	0	0	0	752.909	-0.535616	-0.535957	0.00167961	3	-0.00825314	39	96.1844	-9.00199e-07
2	1	0	1	0	754.708	-0.526618	-0.527186	0.00160151	3	-0.0082501	39	97.9841	-8.44292e-07
2	1	0	1	0	756.508	-0.517619	-0.518086	0.00163739	3	-0.0082471	39	99.7838	-8.48308e-07
2	1	0	0	0	758.308	-0.508621	-0.509236	0.00161902	3	-0.00824415	39	101.584	-8.24463e-07
2	1	0	0	0	760.108	-0.499622	-0.500129	0.00162395	3	-0.0082412	39	103.383	-8.12182e-07
2	1	0	1	0	761.907	-0.490623	-0.491317	0.00164335	3	-0.00823827	39	105.183	-8.07406e-07
2	1	0	1	0	763.707	-0.481625	-0.482148	0.0015586	3	-0.0082354	39	106.983	-7.51476e-07
2	1	0	0	0	765.507	-0.472626	-0.472896	0.00148664	3	-0.00823262	39	108.782	-7.03026e-07
2	1	0	0	0	767.306	-0.463628	-0.464248	0.00154218	3	-0.00822986	39	110.582	-7.15952e-07
2	1	0	1	0	769.106	-0.454629	-0.455107	0.00156806	3	-0.0082271	39	112.382	-7.13638e-07
2	1	0	1	0	770.906	-0.445631	-0.446024	0.00150743	3	-0.00822434	39	114.181	-6.72349e-07
2	1	0	0	0	772.706	-0.436632	-0.437433	0.00150099	3	-0.00822159	39	115.981	-6.56582e-07
2	1	0	0	0	774.505	-0.427634	-0.428252	0.00152338	3	-0.00821885	39	117.781	-6.52389e-07
2	1	0	1	0	776.305	-0.418635	-0.419049	0.00157204	3	-0.00821605	39	119.581	-6.58763e-07
2	1	0	1	0	778.105	-0.409636	-0.410182	0.00161477	3	-0.00821323	39	121.38	-6.6235e-07
2	1	0	0	0	779.904	-0.400638	-0.401122	0.00157472	3	-0.00821042	39	123.18	-6.31655e-07
2	1	0	1	0	781.704	-0.39164	-0.392221	0.00155128	3	-0.0082076	39	124.98	-6.08445e-07
2	1	0	1	0	783.504	-0.382641	-0.383368	0.00160333	3	-0.00820479	39	126.779	-6.14667e-07
2	1	0	0	0	785.304	-0.373642	-0.373828	0.00164875	3	-0.00820187	39	128.579	-6.16351e-07
2	1	0	0	0	787.103	-0.364644	-0.365118	0.00157299	3	-0.00819898	39	130.379	-5.74327e-07
2	1	0	1	0	788.903	-0.355645	-0.355934	0.00160679	3	-0.00819614	39	132.179	-5.71912e-07
2	1	0	1	0	790.703	-0.346647	-0.347099	0.00158617	3	-0.00819326	39	133.978	-5.50559e-07
2	1	0	0	0	792.502	-0.337648	-0.337969	0.00158622	3	-0.00819043	39	135.778	-5.36092e-07
2	1	0	0	0	794.302	-0.32865	-0.32898	0.00160618	3	-0.00818762	39	137.578	-5.28402e-07
2	1	0	1	0	796.102	-0.319651	-0.32016	0.00161297	3	-0.00818473	39	139.377	-5.16408e-07
2	1	0	1	0	797.901	-0.310653	-0.311104	0.00160173	3	-0.00818182	39	141.177	-4.98306e-07
2	1	0	0	0	799.701	-0.301654	-0.302313	0.00162663	3	-0.00817889	39	142.977	-4.9175e-07
2	1	0	1	0	801.141	-0.305554	-0.305345	0.00126527	3	-0.00817683	39	144.417	-3.86342e-07
2	1	0	0	0	802.941	-0.314552	-0.314153	0.00114768	3	-0.00817467	39	146.217	-3.60546e-07
2	1	0	1	0	804.741	-0.32355	-0.323421	0.00102861	3	-0.00817266	39	148.016	-3.32673e-07
2	1	0	1	0	806.541	-0.332549	-0.332345	0.00106824	3	-0.00817079	39	149.816	-3.55025e-07
2	1	0	0	0	808.34	-0.341548	-0.34122	0.00106271	3	-0.00816902	39	151.616	-3.62618e-07
2	1	0	0	0	810.14	-0.350546	-0.350502	0.000956176	3	-0.0081673	39	153.416	-3.35142e-07
2	1	0	1	0	811.94	-0.359545	-0.359159	0.000913562	3	-0.00816563	39	155.215	-3.28114e-07
2	1	0	1	0	813.739	-0.368543	-0.368578	0.000861873	3	-0.00816403	39	157.015	-3.17668e-07
2	1	0	0	0	815.539	-0.377542	-0.377132	0.000810529	3	-0.00816255	39	158.815	-3.05677e-07
2	1	0	0	0	817.339	-0.38654	-0.386174	0.000818957	3	-0.00816112	39	160.614	-3.1626e-07
2	1	0	1	0	819.139	-0.395539	-0.395644	0.000761908	3	-0.00815969	39	162.414	-3.01444e-07
2	1	0	1	0	820.938	-0.404537	-0.404133	0.000779671	3	-0.00815825	39	164.214	-3.15091e-07
2	1	0	0	0	822.738	-0.413536	-0.413226	0.000824186	3	-0.0081568	39	166.014	-3.40575e-07
2	1	0	0	0	824.538	-0.422535	-0.422603	0.000676512	3	-0.00815537	39	167.813	-2.85896e-07
2	1	0	1	0	826.337	-0.431533	-0.430982	0.000787148	3	-0.00815399	39	169.613	-3.39247e-07
2	1	0	1	0	828.137	-0.440532	-0.44001	0.000793292	3	-0.00815262	39	171.413	-3.49056e-07
2	1	0	0	0	829.937	-0.44953	-0.449194	0.000731007	3	-0.00815128	39	173.212	-3.28364e-07
2	1	0	1	0	831.736	-0.458528	-0.458042	0.000692772	3	-0.00814993	39	175.012	-3.17319e-07
2	1	0	1	0	833.536	-0.467527	-0.46718	0.000699674	3	-0.00814864	39	176.812	-3.26874e-07
2	1	0	0	0	835.336	-0.476526	-0.476356	0.000717955	3	-0.00814735	39	178.612	-3.42002e-07
2	1	0	0	0	837.136	-0.485524	-0.485442	0.000722407	3	-0.00814606	39	180.411	-3.50687e-07
2	1	0	1	0	838.935	-0.494523	-0.494605	0.000616391	3	-0.00814485	39	182.211	-3.0487e-07
2	1	0	1	0	840.735	-0.503521	-0.50328	0.000659739	3	-0.00814368	39	184.011	-3.32034e-07
2	1	0	0	0	842.535	-0.51252	-0.512282	0.000590979	3	-0.00814255	39	185.81	-3.02748e-07
2	1	0	0	0	844.334	-0.521518	-0.521146	0.000577538	3	-0.00814147	39	187.61	-3.00982e-07
2	1	0	1	0	846.134	-0.530517	-0.530059	0.000640032	3	-0.00814039	39	189.41	-3.39255e-07
2	1	0	1	0	847.934	-0.539516	-0.539079	0.000589942	3	-0.0081393	39	191.209	-3.18025e-07
2	1	0	0	0	849.734	-0.548514	-0.548067	0.000629789	3	-0.0081382	39	193.009	-3.45167e-07
2	1	0	0	0	851.533	-0.557513	-0.557197	0.000622432	3	-0.00813712	39	194.809	-3.46817e-07
2	1	0	1	0	853.333	-0.566511	-0.566239	0.000600055	3	-0.00813602	39	196.609	-3.39775e-07
2	1	0	1	0	855.133	-0.57551	-0.575245	0.000654939	3	-0.00813491	39	198.408	-3.7675e-07
2	1	0	0	0	856.932	-0.584508	-0.584178	0.000572784	3	-0.00813382	39	200.208	-3.34607e-07
2	1	0	1	0	858.732	-0.593507	-0.592965	0.000593225	3	-0.00813274	39	202.008	-3.51762e-07
2	1	0	1	0	860.532	-0.602505	-0.60206	0.000585533	3	-0.00813163	39	203.807	-3.52526e-07
2	1	0	0	0	862.332	-0.611504	-0.611268	0.000556793	3	-0.00813053	39	205.607	-3.4035e-07
2	1	0	0	0	864.131	-0.620502	-0.620245	0.000630956	3	-0.00812945	39	207.407	-3.91347e-07
2	1	0	1	0	865.931	-0.629501	-0.629439	0.000575161	3	-0.00812842	39	209.207	-3.62029e-07
2	1	0	1	0	867.731	-0.638499	-0.638019	0.000496719	3	-0.00812745	39	211.006	-3.16916e-07
2	1	0	0	0	869.53	-0.647498	-0.64714	0.000510851	3	-0.00812655	39	212.806	-3.30592e-07
2	1	0	0	0	871.33	-0.656496	-0.656155	0.000476104	3	-0.00812566	39	214.606	-3.12398e-07
2	1	0	1	0	873.13	-0.665495	-0.665281	0.000508777	3	-0.00812471	39	216.405	-3.3848e-07
2	1	0	1	0	874.929	-0.674493	-0.674392	0.000474202	3	-0.00812382	39	218.205	-3.19798e-07
2	1	0	0	0	876.729	-0.683492	-0.683204	0.000486044	3	-0.00812295	39	220.005	-3.32067e-07
2	1	0	0	0	878.529	-0.692491	-0.692032	0.000438953	3	-0.00812214	39	221.804	-3.03769e-07
2	1	0	1	0	880.329	-0.701489	-0.70109	0.000373589	3	-0.00812135	39	223.604	-2.6192e-07
2	1	0	1	0	882.128	-0.710488	-0.710662	0.000388329	3	-0.00812061	39	225.404	-2.7597e-07
2	1	0	0	0	883.928	-0.719486	-0.718993	0.000336724	3	-0.00811994	39	227.204	-2.42102e-07
2	1	0	1	0	885.728	-0.728485	-0.728268	0.000360455	3	-0.00811931	39	229.003	-2.62508e-07
2	1	0	1	0	887.527	-0.737483	-0.737194	0.000346578	3	-0.00811873	39	230.803	-2.55495e-07
2	1	0	0	0	889.327	-0.746482	-0.746115	0.000272933	3	-0.00811823	39	232.603	-2.03639e-07
2	1	0	0	0	891.127	-0.75548	-0.755203	0.000235808	3	-0.00811777	39	234.402	-1.78083e-07
2	1	0	1	0	892.927	-0.764479	-0.764237	0.000160003	3	-0.00811745	39	236.202	-1.2228e-07
2	1	0	1	0	894.726	-0.773477	-0.773071	9.4786e-05	3	-0.00811719	39	238.002	-7.32763e-08
2	1	0	0	0	896.526	-0.782476	-0.781943	0.000144314	3	-0.00811702	39	239.802	-1.12846e-07
2	1	0	0	0	898.326	-0.791475	-0.791357	6.56566e-05	3	-0.00811691	39	241.601	-5.19579e-08
2	0	0	1	0	900.125	-0.800473	-0.800202	-3.06344e-05	3	-0.00811683	39	0.000000000000000E+000	2.45137e-08
2	0	0	1	0	901.925	-0.809472	-0.809288	-4.07044e-05	3	-0.00811686	39	1.1998	3.29416e-08
2	0	0	0	0	903.725	-0.81847	-0.818061	-5.0126e-05	3	-0.00811695	39	2.9996	4.10061e-08
2	0	0	1	0	905.524	-0.827469	-0.827119	-7.03216e-05	3	-0.00811709	39	4.7993	5.81643e-08
2	0	0	1	0	907.324	-0.836467	-0.83589	-6.05849e-05	3	-0.00811721	39	6.599	5.06423e-08
2	0	0	1	0	909.124	-0.845466	-0.845354	-0.000204813	3	-0.00811745	39	8.3987	1.73139e-07
2	0	0	0	0	910.924	-0.854464	-0.854179	-0.000187907	3	-0.00811777	39	10.1984	1.60506e-07
2	0	0	1	0	912.723	-0.863462	-0.862915	-0.000258482	3	-0.00811817	39	11.9981	2.23048e-07
2	0	0	1	0	914.523	-0.872461	-0.871859	-0.000301399	3	-0.00811868	39	13.7978	2.62778e-07
2	0	0	0	0	916.323	-0.88146	-0.881485	-0.000332171	3	-0.00811922	39	15.5976	2.92804e-07
2	0	0	0	0	918.122	-0.890458	-0.890048	-0.000435679	3	-0.00811989	39	17.3972	3.87775e-07
2	0	0	1	0	919.922	-0.899457	-0.899078	-0.000465759	3	-0.0081207	39	19.197	4.18754e-07
2	0	0	1	0	921.722	-0.908455	-0.907967	-0.000530025	3	-0.00812162	39	20.9966	4.81245e-07
2	0	0	0	0	923.522	-0.917454	-0.917143	-0.000568403	3	-0.00812257	39	22.7964	5.21307e-07
2	0	0	0	0	925.321	-0.926452	-0.926018	-0.000616246	3	-0.00812361	39	24.596	5.70655e-07
2	0	0	1	0	927.121	-0.935451	-0.935246	-0.000694818	3	-0.00812476	39	26.3958	6.49826e-07
2	0	0	1	0	928.921	-0.944449	-0.944103	-0.000710938	3	-0.00812603	39	28.1954	6.71199e-07
2	0	0	0	0	930.72	-0.953448	-0.952907	-0.000796597	3	-0.00812738	39	29.9952	7.59083e-07
2	0	0	1	0	932.52	-0.962447	-0.962434	-0.000826204	3	-0.00812884	39	31.7949	7.95167e-07
2	0	0	1	0	934.32	-0.971445	-0.971207	-0.000956376	3	-0.00813048	39	33.5946	9.28839e-07
2	0	0	1	0	936.119	-0.980444	-0.979702	-0.00101615	3	-0.00813227	39	35.3943	9.95524e-07
2	0	0	0	0	937.919	-0.989442	-0.98912	-0.00106887	3	-0.00813417	39	37.194	1.05725e-06
2	0	0	1	0	939.719	-0.998441	-0.998338	-0.00114831	3	-0.00813624	39	38.9938	1.1464e-06
2	0	0	1	0	941.519	-1.00744	-1.00715	-0.00124235	3	-0.00813838	39	40.7934	1.25123e-06
2	0	0	1	0	943.318	-1.01644	-1.0159	-0.00132221	3	-0.00814067	39	42.5932	1.34323e-06
2	0	0	0	0	945.118	-1.02544	-1.02502	-0.00140537	3	-0.00814313	39	44.3928	1.44053e-06
2	0	0	1	0	946.918	-1.03443	-1.03405	-0.00146069	3	-0.00814572	39	46.1926	1.51044e-06
2	0	0	1	0	948.717	-1.04343	-1.04326	-0.0015139	3	-0.0081484	39	47.9922	1.57938e-06
2	0	0	0	0	950.517	-1.05243	-1.052	-0.00153088	3	-0.00815112	39	49.792	1.61049e-06
2	0	0	0	0	952.317	-1.06143	-1.06062	-0.00155322	3	-0.00815392	39	51.5916	1.64738e-06
2	0	0	1	0	954.117	-1.07043	-1.07023	-0.00161689	3	-0.00815685	39	53.3914	1.73045e-06
2	0	0	1	0	955.916	-1.07943	-1.07908	-0.00167104	3	-0.00815986	39	55.191	1.80318e-06
2	0	0	0	0	957.716	-1.08843	-1.08821	-0.00179443	3	-0.00816296	39	56.9908	1.95272e-06
2	0	0	0	0	959.516	-1.09742	-1.0973	-0.00185606	3	-0.00816625	39	58.7904	2.03664e-06
2	0	0	1	0	961.315	-1.10642	-1.10559	-0.00198567	3	-0.00816975	39	60.5902	2.19533e-06
2	0	0	1	0	963.115	-1.11542	-1.11502	-0.00205539	3	-0.00817335	39	62.3898	2.29179e-06
2	0	0	0	0	964.915	-1.12442	-1.12442	-0.00207453	3	-0.00817709	39	64.1896	2.33263e-06
2	0	0	1	0	966.714	-1.13342	-1.13276	-0.00225396	3	-0.00818098	39	65.9893	2.55319e-06
2	0	0	1	0	968.514	-1.14242	-1.14224	-0.00247395	3	-0.00818522	39	67.789	2.82584e-06
2	0	0	1	0	970.314	-1.15142	-1.15096	-0.00258658	3	-0.00818978	39	69.5887	2.97704e-06
2	0	0	0	0	972.114	-1.16041	-1.15978	-0.0028427	3	-0.00819468	39	71.3884	3.2969e-06
2	0	0	1	0	973.913	-1.16941	-1.16902	-0.00308895	3	-0.00820001	39	73.1882	3.61106e-06
2	0	0	1	0	975.713	-1.17841	-1.17829	-0.00341845	3	-0.0082058	39	74.9878	4.02792e-06
2	0	0	0	0	977.513	-1.18741	-1.18703	-0.00372042	3	-0.00821222	39	76.7876	4.41624e-06
2	0	0	0	0	979.312	-1.19641	-1.19585	-0.00414466	3	-0.00821934	39	78.5872	4.95639e-06
2	0	0	1	0	981.112	-1.20541	-1.20531	-0.00472327	3	-0.00822736	39	80.387	5.69301e-06
2	0	0	1	0	982.912	-1.21441	-1.21391	-0.0057788	3	-0.00823677	39	82.1866	7.01496e-06
2	0	0	0	0	984.712	-1.2234	-1.22322	-0.00659822	3	-0.00824793	39	83.9864	8.07109e-06
2	0	0	0	0	986.511	-1.2324	-1.23217	-0.00755357	3	-0.00826063	39	85.786	9.30725e-06
2	0	0	1	0	988.311	-1.2414	-1.24129	-0.00869398	3	-0.00827526	39	87.5858	1.07917e-05
2	0	0	1	0	990.111	-1.2504	-1.25041	-0.0101205	3	-0.00829219	39	89.3855	1.26548e-05
2	0	0	0	0	991.91	-1.2594	-1.25915	-0.0118626	3	-0.00831189	39	91.1852	1.49367e-05
2	0	0	1	0	993.71	-1.2684	-1.26803	-0.0143512	3	-0.00833532	39	92.9849	1.81978e-05
2	0	0	1	0	995.51	-1.2774	-1.27709	-0.0169746	3	-0.00836317	39	94.7846	2.16781e-05
2	0	0	1	0	997.309	-1.28639	-1.28602	-0.0211235	3	-0.00839764	39	96.5843	2.71652e-05
2	0	0	0	0	999.109	-1.29539	-1.29487	-0.0263316	3	-0.00843966	39	98.384	3.40961e-05
2	0	0	0	0	1000.02	-1.30004	-1.29985	-0.0298762	3	-0.00846518	39	99.2956	3.88347e-05