File: Fig 1/Fig 1_RRDE-an-Fe2O3_5mvs_disk.mpt
mode	ox/red	error	control changes	Ns changes	counter inc.	Ns	time/s	control/V	Ewe/V	<I>/mA	dQ/C	(Q-Qo)/C	I Range	Q charge/discharge/mA.h	half cycle	Energy charge/W.h	Energy discharge/W.h	Capacitance charge/µF	Capacitance discharge/µF	step time/s	Q discharge/mA.h	Q charge/mA.h	Capacity/mA.h	Efficiency/%	cycle number	P/W
2	1	1	0	0	0	0	0.1	-0.299994	-0.300079	0.250855	-7.52374e-06	-7.52374e-06	40	-2.08993e-06	0	0.000000000000000E+000	6.27143e-10	0.000000000000000E+000	0.000000000000000E+000	0.1	2.08993e-06	0.000000000000000E+000	2.08993e-06	0.0000000E+000	0.000000000000000E+000	-7.52764e-05
2	0	0	0	0	0	0	3.9274	-0.299994	-0.300079	-0.00371984	-1.64984e-05	-1.64984e-05	41	-4.25381e-06	3	5.28482e-10	1.27673e-09	138209	102707	3.5	4.25381e-06	0.000000000000000E+000	4.25381e-06	0.0000000E+000	1	1.11625e-06
2	1	0	0	0	0	0	7.7274	-0.299994	-0.300148	-0.00311612	-2.93284e-05	-2.93284e-05	41	-7.81769e-06	3	5.28482e-10	2.34632e-09	138209	350276	7.3	7.81769e-06	0.000000000000000E+000	7.81769e-06	0.0000000E+000	1	9.35298e-07
2	0	0	0	0	0	0	11.5274	-0.299994	-0.300148	-0.00265826	-4.04869e-05	-4.04869e-05	41	-1.09173e-05	3	5.28482e-10	3.27663e-09	138209	489155	11.1	1.09173e-05	0.000000000000000E+000	1.09173e-05	0.0000000E+000	1	7.97871e-07
2	0	0	0	0	0	0	15.3274	-0.299994	-0.300087	-0.00247802	-5.02345e-05	-5.02345e-05	41	-1.36249e-05	3	5.28482e-10	4.08933e-09	138209	346638	14.9	1.36249e-05	0.000000000000000E+000	1.36249e-05	0.0000000E+000	1	7.4362e-07
2	0	0	0	0	0	0	19.1274	-0.299994	-0.300117	-0.00235632	-5.94071e-05	-5.94071e-05	41	-1.61729e-05	3	5.28482e-10	4.85401e-09	138209	525026	18.7	1.61729e-05	0.000000000000000E+000	1.61729e-05	0.0000000E+000	1	7.07172e-07
2	0	0	0	0	0	0	22.9274	-0.299994	-0.300117	-0.00225861	-6.82004e-05	-6.82004e-05	41	-1.86155e-05	3	5.28482e-10	5.58701e-09	138209	604320	22.5	1.86155e-05	0.000000000000000E+000	1.86155e-05	0.0000000E+000	1	6.77849e-07
2	0	0	0	0	0	0	26.7274	-0.299994	-0.300079	-0.00220207	-7.66596e-05	-7.66596e-05	41	-2.09653e-05	3	5.28482e-10	6.2922e-09	138209	506099	26.3	2.09653e-05	0.000000000000000E+000	2.09653e-05	0.0000000E+000	1	6.60795e-07
2	0	0	0	0	0	0	30.5274	-0.299994	-0.300056	-0.00215473	-8.48757e-05	-8.48757e-05	41	-2.32475e-05	3	5.28482e-10	6.9771e-09	138209	486437	30.1	2.32475e-05	0.000000000000000E+000	2.32475e-05	0.0000000E+000	1	6.4654e-07
2	0	0	0	0	0	0	34.3274	-0.299994	-0.300106	-0.00209123	-9.29143e-05	-9.29143e-05	41	-2.54805e-05	3	5.28482e-10	7.6472e-09	138209	749619	33.9	2.54805e-05	0.000000000000000E+000	2.54805e-05	0.0000000E+000	1	6.2759e-07
2	0	0	0	0	0	0	38.1274	-0.299994	-0.300129	-0.00205958	-0.00010078	-0.00010078	41	-2.76652e-05	3	5.28482e-10	8.30286e-09	138209	1.00205e+06	37.7	2.76652e-05	0.000000000000000E+000	2.76652e-05	0.0000000E+000	1	6.18139e-07
2	0	0	0	0	0	0	41.9274	-0.299994	-0.300052	-0.00199575	-0.000108512	-0.000108512	41	-2.98131e-05	3	5.28482e-10	8.94739e-09	138209	610389	41.5	2.98131e-05	0.000000000000000E+000	2.98131e-05	0.0000000E+000	1	5.98828e-07
2	1	0	0	0	0	0	45.7274	-0.299994	-0.300033	-0.00197697	-0.000116094	-0.000116094	41	-3.19193e-05	3	5.28482e-10	9.57943e-09	138209	589380	45.3	3.19193e-05	0.000000000000000E+000	3.19193e-05	0.0000000E+000	1	5.93156e-07
2	0	0	0	0	0	0	49.5274	-0.299994	-0.300094	-0.00194921	-0.000123575	-0.000123575	41	-3.39974e-05	3	5.28482e-10	1.02031e-08	138209	914642	49.1	3.39974e-05	0.000000000000000E+000	3.39974e-05	0.0000000E+000	1	5.84946e-07
2	0	0	0	0	0	0	53.3274	-0.299994	-0.300083	-0.00193886	-0.00013094	-0.00013094	41	-3.60433e-05	3	5.28482e-10	1.0817e-08	138209	892921	52.9	3.60433e-05	0.000000000000000E+000	3.60433e-05	0.0000000E+000	1	5.81818e-07
2	1	0	0	0	0	0	57.1274	-0.299994	-0.299983	-0.00190263	-0.000138192	-0.000138192	41	-3.80576e-05	3	5.28482e-10	1.14215e-08	138209	559883	56.7	3.80576e-05	0.000000000000000E+000	3.80576e-05	0.0000000E+000	1	5.70758e-07
2	1	0	0	0	0	0	60.9274	-0.299994	-0.300098	-0.00186305	-0.000145342	-0.000145342	41	-4.00437e-05	3	5.28482e-10	1.20175e-08	138209	1.10892e+06	60.5	4.00437e-05	0.000000000000000E+000	4.00437e-05	0.0000000E+000	1	5.59099e-07
2	0	0	0	0	0	0	64.7274	-0.299994	-0.300125	-0.00185441	-0.00015238	-0.00015238	41	-4.19986e-05	3	5.28482e-10	1.26042e-08	138209	1.46499e+06	64.3	4.19986e-05	0.000000000000000E+000	4.19986e-05	0.0000000E+000	1	5.56555e-07
2	0	0	0	0	0	0	68.5274	-0.299994	-0.30009	-0.00180582	-0.000159303	-0.000159303	41	-4.39217e-05	3	5.28482e-10	1.31813e-08	138209	1.14889e+06	68.1	4.39217e-05	0.000000000000000E+000	4.39217e-05	0.0000000E+000	1	5.4191e-07
2	0	0	0	0	0	0	72.3274	-0.299994	-0.300148	-0.00181485	-0.000166169	-0.000166169	41	-4.5829e-05	3	5.28482e-10	1.37537e-08	138209	2.05492e+06	71.9	4.5829e-05	0.000000000000000E+000	4.5829e-05	0.0000000E+000	1	5.44724e-07
2	0	0	0	0	0	0	76.1274	-0.299994	-0.300098	-0.00178513	-0.000172961	-0.000172961	41	-4.77158e-05	3	5.28482e-10	1.43199e-08	138209	1.32138e+06	75.7	4.77158e-05	0.000000000000000E+000	4.77158e-05	0.0000000E+000	1	5.35714e-07
2	0	0	0	0	0	0	79.9274	-0.299994	-0.300064	-0.00175539	-0.000179678	-0.000179678	41	-4.95814e-05	3	5.28482e-10	1.48797e-08	138209	1.0856e+06	79.5	4.95814e-05	0.000000000000000E+000	4.95814e-05	0.0000000E+000	1	5.26729e-07
2	0	0	0	0	0	0	83.7274	-0.299994	-0.300087	-0.00174149	-0.000186307	-0.000186307	41	-5.14229e-05	3	5.28482e-10	1.54323e-08	138209	1.30827e+06	83.3	5.14229e-05	0.000000000000000E+000	5.14229e-05	0.0000000E+000	1	5.22597e-07
2	0	0	0	0	0	0	87.5274	-0.299994	-0.30006	-0.00171337	-0.000192883	-0.000192883	41	-5.32495e-05	3	5.28482e-10	1.59804e-08	138209	1.13947e+06	87.1	5.32495e-05	0.000000000000000E+000	5.32495e-05	0.0000000E+000	1	5.14113e-07
2	0	0	0	0	0	0	91.3274	-0.299994	-0.300087	-0.00173973	-0.00019941	-0.00019941	41	-5.50625e-05	3	5.28482e-10	1.65244e-08	138209	1.40087e+06	90.9	5.50625e-05	0.000000000000000E+000	5.50625e-05	0.0000000E+000	1	5.22069e-07
2	0	0	0	0	0	0	95.1274	-0.299994	-0.300113	-0.00172152	-0.000205922	-0.000205922	41	-5.68714e-05	3	5.28482e-10	1.70673e-08	138209	1.7853e+06	94.7	5.68714e-05	0.000000000000000E+000	5.68714e-05	0.0000000E+000	1	5.16653e-07
2	0	0	0	0	0	0	98.9274	-0.299994	-0.300079	-0.00168852	-0.000212424	-0.000212424	41	-5.86777e-05	3	5.28482e-10	1.76093e-08	138209	1.41647e+06	98.5	5.86777e-05	0.000000000000000E+000	5.86777e-05	0.0000000E+000	1	5.0669e-07
2	0	0	0	0	0	0	102.727	-0.299994	-0.300052	-0.00170024	-0.000218899	-0.000218899	41	-6.04763e-05	3	5.28482e-10	1.8149e-08	138209	1.23756e+06	102.3	6.04763e-05	0.000000000000000E+000	6.04763e-05	0.0000000E+000	1	5.10161e-07
2	0	0	0	0	0	0	106.527	-0.299994	-0.300067	-0.00167006	-0.000225292	-0.000225292	41	-6.22521e-05	3	5.28482e-10	1.86818e-08	138209	1.3954e+06	106.1	6.22521e-05	0.000000000000000E+000	6.22521e-05	0.0000000E+000	1	5.01132e-07
2	0	0	0	0	0	0	110.327	-0.299994	-0.30011	-0.00165899	-0.000231599	-0.000231599	41	-6.40041e-05	3	5.28482e-10	1.92075e-08	138209	1.94306e+06	109.9	6.40041e-05	0.000000000000000E+000	6.40041e-05	0.0000000E+000	1	4.9788e-07
2	0	0	0	0	0	0	114.127	-0.299994	-0.300033	-0.00162156	-0.000237819	-0.000237819	41	-6.57317e-05	3	5.28482e-10	1.9726e-08	138209	1.21334e+06	113.7	6.57317e-05	0.000000000000000E+000	6.57317e-05	0.0000000E+000	1	4.86522e-07
2	1	0	0	0	0	0	117.927	-0.299994	-0.300079	-0.00160324	-0.000243936	-0.000243936	41	-6.7431e-05	3	5.28482e-10	2.02358e-08	138209	1.62778e+06	117.5	6.7431e-05	0.000000000000000E+000	6.7431e-05	0.0000000E+000	1	4.81098e-07
2	0	0	0	0	0	0	121.727	-0.299994	-0.30009	-0.00157242	-0.000249952	-0.000249952	41	-6.91019e-05	3	5.28482e-10	2.07373e-08	138209	1.80676e+06	121.3	6.91019e-05	0.000000000000000E+000	6.91019e-05	0.0000000E+000	1	4.71868e-07
2	1	0	0	0	0	0	125.527	-0.299994	-0.300106	-0.0015521	-0.000255864	-0.000255864	41	-7.07443e-05	3	5.28482e-10	2.12301e-08	138209	2.08227e+06	125.1	7.07443e-05	0.000000000000000E+000	7.07443e-05	0.0000000E+000	1	4.65795e-07
2	1	0	0	0	0	0	129.327	-0.299994	-0.300079	-0.00150123	-0.000261642	-0.000261642	41	-7.23493e-05	3	5.28482e-10	2.17118e-08	138209	1.7465e+06	128.9	7.23493e-05	0.000000000000000E+000	7.23493e-05	0.0000000E+000	1	4.50488e-07
2	0	0	0	0	0	0	133.127	-0.299994	-0.30009	-0.00145209	-0.000267253	-0.000267253	41	-7.3908e-05	3	5.28482e-10	2.21795e-08	138209	1.93242e+06	132.7	7.3908e-05	0.000000000000000E+000	7.3908e-05	0.0000000E+000	1	4.35759e-07
2	0	0	0	0	0	0	136.927	-0.299994	-0.300075	-0.00138457	-0.000272617	-0.000272617	41	-7.53978e-05	3	5.28482e-10	2.26266e-08	138209	1.77504e+06	136.5	7.53978e-05	0.000000000000000E+000	7.53978e-05	0.0000000E+000	1	4.15474e-07
2	0	0	0	0	0	0	140.727	-0.299994	-0.300083	-0.00125855	-0.000277627	-0.000277627	41	-7.67897e-05	3	5.28482e-10	2.30443e-08	138209	1.90235e+06	140.3	7.67897e-05	0.000000000000000E+000	7.67897e-05	0.0000000E+000	1	3.77669e-07
2	0	0	0	0	0	0	144.527	-0.299994	-0.300087	-0.00109648	-0.000282128	-0.000282128	41	-7.80397e-05	3	5.28482e-10	2.34194e-08	138209	1.98544e+06	144.1	7.80397e-05	0.000000000000000E+000	7.80397e-05	0.0000000E+000	1	3.2904e-07
2	0	0	0	0	0	0	148.327	-0.299994	-0.300056	-0.000890823	-0.000285969	-0.000285969	41	-7.91068e-05	3	5.28482e-10	2.37396e-08	138209	1.65525e+06	147.9	7.91068e-05	0.000000000000000E+000	7.91068e-05	0.0000000E+000	1	2.67297e-07
2	0	0	0	0	0	0	152.127	-0.299994	-0.300106	-0.000683633	-0.000289039	-0.000289039	41	-7.99594e-05	3	5.28482e-10	2.39955e-08	138209	2.3535e+06	151.7	7.99594e-05	0.000000000000000E+000	7.99594e-05	0.0000000E+000	1	2.05162e-07
2	0	0	0	0	0	0	155.927	-0.299994	-0.300087	-0.000421333	-0.000291163	-0.000291163	41	-8.05495e-05	3	5.28482e-10	2.41725e-08	138209	2.05059e+06	155.5	8.05495e-05	0.000000000000000E+000	8.05495e-05	0.0000000E+000	1	1.26437e-07
2	1	0	0	0	0	0	159.727	-0.299994	-0.300068	-0.00013363	-0.000292205	-0.000292205	41	-8.08391e-05	3	5.28482e-10	2.42594e-08	138209	1.8127e+06	159.3	8.08391e-05	0.000000000000000E+000	8.08391e-05	0.0000000E+000	1	4.00981e-08
2	1	0	0	0	0	0	163.527	-0.299994	-0.300083	0.000185608	-0.000292126	-0.000292126	41	5.21569e-08	4	1.56507e-11	0.000000000000000E+000	16322.1	0.000000000000000E+000	2.2	0.000000000000000E+000	5.21569e-08	5.21569e-08	0.0000000E+000	2	-5.56979e-08
2	1	0	0	0	0	0	167.327	-0.299994	-0.300075	0.00054889	-0.000290867	-0.000290867	41	4.01952e-07	4	1.20614e-10	0.000000000000000E+000	75629.6	0.000000000000000E+000	6	0.000000000000000E+000	4.01952e-07	4.01952e-07	0.0000000E+000	2	-1.64708e-07
2	1	0	0	0	0	0	171.127	-0.299994	-0.300129	0.000882018	-0.000287642	-0.000287642	41	1.29771e-06	4	3.89421e-10	0.000000000000000E+000	135721	0.000000000000000E+000	9.8	0.000000000000000E+000	1.29771e-06	1.29771e-06	0.0000000E+000	2	-2.64719e-07
2	0	0	0	0	0	0	174.927	-0.299994	-0.300029	0.0003066	-0.000284867	-0.000284867	41	2.06857e-06	4	6.2076e-10	0.000000000000000E+000	114517	0.000000000000000E+000	13.6	0.000000000000000E+000	2.06857e-06	2.06857e-06	0.0000000E+000	2	-9.1989e-08
2	0	0	0	0	0	0	178.727	-0.299994	-0.300098	-0.00122873	-0.000287506	-0.000287506	41	-7.49637e-07	5	6.25776e-10	2.2495e-10	987824	141049	3.3	7.49637e-07	0.000000000000000E+000	7.49637e-07	0.0000000E+000	2	3.68738e-07
2	0	0	0	0	0	0	182.527	-0.299994	-0.300071	-0.001333	-0.000292464	-0.000292464	41	-2.127e-06	5	6.25776e-10	6.3827e-10	987824	995864	7.1	2.127e-06	0.000000000000000E+000	2.127e-06	0.0000000E+000	2	3.99996e-07
2	1	0	0	0	0	0	186.327	-0.299994	-0.300022	-0.0013642	-0.000297603	-0.000297603	41	-3.55459e-06	5	6.25776e-10	1.06665e-09	987824	223171	10.9	3.55459e-06	0.000000000000000E+000	3.55459e-06	0.0000000E+000	2	4.0929e-07
2	0	0	0	0	0	0	190.127	-0.299994	-0.300102	-0.00132897	-0.000302694	-0.000302694	41	-4.96857e-06	5	6.25776e-10	1.49097e-09	987824	779459	14.7	4.96857e-06	0.000000000000000E+000	4.96857e-06	0.0000000E+000	2	3.98827e-07
2	1	0	0	0	0	0	193.927	-0.299994	-0.300121	-0.00129249	-0.000307698	-0.000307698	41	-6.35858e-06	5	6.25776e-10	1.90806e-09	987824	544359	18.5	6.35858e-06	0.000000000000000E+000	6.35858e-06	0.0000000E+000	2	3.87902e-07
2	0	0	0	0	0	0	197.727	-0.299994	-0.300144	-0.00122292	-0.000312545	-0.000312545	41	-7.70499e-06	5	6.25776e-10	2.31213e-09	987824	426941	22.3	7.70499e-06	0.000000000000000E+000	7.70499e-06	0.0000000E+000	2	3.67053e-07
2	0	0	0	0	0	0	201.527	-0.299994	-0.300052	-0.00108683	-0.000317067	-0.000317067	41	-8.96118e-06	5	6.25776e-10	2.68907e-09	987824	1.20409e+06	26.1	8.96118e-06	0.000000000000000E+000	8.96118e-06	0.0000000E+000	2	3.26105e-07
2	0	0	0	0	0	0	205.327	-0.299994	-0.300033	-0.0012779	-0.000321582	-0.000321582	41	-1.02153e-05	5	6.25776e-10	3.06541e-09	987824	802323	29.9	1.02153e-05	0.000000000000000E+000	1.02153e-05	0.0000000E+000	2	3.83413e-07
2	0	0	0	0	0	0	209.127	-0.299994	-0.300041	-0.00128936	-0.000326423	-0.000326423	41	-1.156e-05	5	6.25776e-10	3.46891e-09	987824	1.08924e+06	33.7	1.156e-05	0.000000000000000E+000	1.156e-05	0.0000000E+000	2	3.8686e-07
2	0	0	0	0	0	0	212.927	-0.299994	-0.300041	-0.00128032	-0.000331298	-0.000331298	41	-1.29142e-05	5	6.25776e-10	3.87525e-09	987824	1.21683e+06	37.5	1.29142e-05	0.000000000000000E+000	1.29142e-05	0.0000000E+000	2	3.84148e-07
2	0	0	0	0	0	0	216.727	-0.299994	-0.300094	-0.00130478	-0.000336197	-0.000336197	41	-1.4275e-05	5	6.25776e-10	4.28357e-09	987824	3.35478e+06	41.3	1.4275e-05	0.000000000000000E+000	1.4275e-05	0.0000000E+000	2	3.91556e-07
2	1	0	0	0	0	0	220.527	-0.299994	-0.300064	-0.00127613	-0.000341123	-0.000341123	41	-1.56434e-05	5	6.25776e-10	4.69421e-09	987824	3.68356e+06	45.1	1.56434e-05	0.000000000000000E+000	1.56434e-05	0.0000000E+000	2	3.82921e-07
2	1	0	0	0	0	0	224.327	-0.299994	-0.300052	-0.00126542	-0.000346022	-0.000346022	41	-1.70041e-05	5	6.25776e-10	5.1025e-09	987824	2.28989e+06	48.9	1.70041e-05	0.000000000000000E+000	1.70041e-05	0.0000000E+000	2	3.79693e-07
2	0	0	0	0	0	0	228.127	-0.299994	-0.300052	-0.00128375	-0.000350834	-0.000350834	41	-1.83408e-05	5	6.25776e-10	5.50363e-09	987824	2.47265e+06	52.7	1.83408e-05	0.000000000000000E+000	1.83408e-05	0.0000000E+000	2	3.85191e-07
2	0	0	0	0	0	0	231.927	-0.299994	-0.30009	-0.00129522	-0.000355758	-0.000355758	41	-1.97085e-05	5	6.25776e-10	5.91403e-09	987824	6.16764e+06	56.5	1.97085e-05	0.000000000000000E+000	1.97085e-05	0.0000000E+000	2	3.88684e-07
2	0	0	0	0	0	0	235.727	-0.299994	-0.300064	-0.00129311	-0.000360705	-0.000360705	41	-2.10829e-05	5	6.25776e-10	6.32643e-09	987824	4.96438e+06	60.3	2.10829e-05	0.000000000000000E+000	2.10829e-05	0.0000000E+000	2	3.88014e-07
2	0	0	0	0	0	0	239.527	-0.299994	-0.300064	-0.00132376	-0.000365682	-0.000365682	41	-2.24652e-05	5	6.25776e-10	6.74123e-09	987824	5.28988e+06	64.1	2.24652e-05	0.000000000000000E+000	2.24652e-05	0.0000000E+000	2	3.97212e-07
2	1	0	0	0	0	0	243.327	-0.299994	-0.300022	-0.00131776	-0.000370707	-0.000370707	41	-2.38612e-05	5	6.25776e-10	7.16012e-09	987824	1.4981e+06	67.9	2.38612e-05	0.000000000000000E+000	2.38612e-05	0.0000000E+000	2	3.95356e-07
2	1	0	0	0	0	0	247.127	-0.299994	-0.30011	-0.00131095	-0.000375685	-0.000375685	41	-2.52439e-05	5	6.25776e-10	7.57502e-09	987824	2.97499e+06	71.7	2.52439e-05	0.000000000000000E+000	2.52439e-05	0.0000000E+000	2	3.9343e-07
2	0	0	0	0	0	0	250.927	-0.299994	-0.300094	-0.00128035	-0.000380606	-0.000380606	41	-2.66108e-05	5	6.25776e-10	7.98517e-09	987824	6.25384e+06	75.5	2.66108e-05	0.000000000000000E+000	2.66108e-05	0.0000000E+000	2	3.84225e-07
2	1	0	0	0	0	0	254.727	-0.299994	-0.300098	-0.0012631	-0.000385471	-0.000385471	41	-2.79623e-05	5	6.25776e-10	8.39072e-09	987824	5.26127e+06	79.3	2.79623e-05	0.000000000000000E+000	2.79623e-05	0.0000000E+000	2	3.79055e-07
2	0	0	0	0	0	0	258.527	-0.299994	-0.300048	-0.0012087	-0.000390179	-0.000390179	41	-2.92699e-05	5	6.25776e-10	8.78312e-09	987824	3.45282e+06	83.1	2.92699e-05	0.000000000000000E+000	2.92699e-05	0.0000000E+000	2	3.62667e-07
2	0	0	0	0	0	0	262.327	-0.299994	-0.300068	-0.00100818	-0.000394496	-0.000394496	41	-3.04692e-05	5	6.25776e-10	9.14297e-09	987824	9.60981e+06	86.9	3.04692e-05	0.000000000000000E+000	3.04692e-05	0.0000000E+000	2	3.02523e-07
2	0	0	0	0	0	0	266.127	-0.299994	-0.30006	-0.000300934	-0.000397197	-0.000397197	41	-3.12194e-05	5	6.25776e-10	9.36809e-09	987824	5.88328e+06	90.7	3.12194e-05	0.000000000000000E+000	3.12194e-05	0.0000000E+000	2	9.02981e-08
2	1	0	0	0	0	0	269.927	-0.299994	-0.300056	0.00142326	-0.000395247	-0.000395247	41	5.75219e-07	6	1.72606e-10	0.000000000000000E+000	181421	0.000000000000000E+000	2.9	0.000000000000000E+000	5.75219e-07	5.75219e-07	0.0000000E+000	3	-4.27058e-07
2	1	0	0	0	0	0	273.727	-0.299994	-0.300155	0.00315322	-0.000386316	-0.000386316	41	3.05613e-06	6	9.17108e-10	0.000000000000000E+000	99292.3	0.000000000000000E+000	6.7	0.000000000000000E+000	3.05613e-06	3.05613e-06	0.0000000E+000	3	-9.46455e-07
2	1	0	0	0	0	0	277.527	-0.299994	-0.300075	0.00432673	-0.000371888	-0.000371888	41	7.06389e-06	6	2.11968e-09	0.000000000000000E+000	833290	0.000000000000000E+000	10.5	0.000000000000000E+000	7.06389e-06	7.06389e-06	0.0000000E+000	3	-1.29834e-06
2	1	0	0	0	0	0	281.327	-0.299994	-0.300094	0.00477959	-0.00035378	-0.00035378	41	1.20939e-05	6	3.62925e-09	0.000000000000000E+000	876886	0.000000000000000E+000	14.3	0.000000000000000E+000	1.20939e-05	1.20939e-05	0.0000000E+000	3	-1.43433e-06
2	1	0	0	0	0	0	285.127	-0.299994	-0.300102	0.00216039	-0.000339864	-0.000339864	41	1.59593e-05	6	4.78914e-09	0.000000000000000E+000	1.00303e+06	0.000000000000000E+000	18.1	0.000000000000000E+000	1.59593e-05	1.59593e-05	0.0000000E+000	3	-6.48336e-07
2	0	0	0	0	0	0	288.927	-0.299994	-0.300037	-0.000419395	-0.000337429	-0.000337429	41	-6.53602e-08	7	5.0117e-09	1.9613e-11	0.000000000000000E+000	5595.5	0.9	6.53602e-08	0.000000000000000E+000	6.53602e-08	0.0000000E+000	3	1.25834e-07
2	0	0	0	0	0	0	292.727	-0.299994	-0.300079	-0.00106424	-0.000340602	-0.000340602	41	-9.46558e-07	7	5.0117e-09	2.84038e-10	0.000000000000000E+000	0.000000000000000E+000	4.7	9.46558e-07	0.000000000000000E+000	9.46558e-07	0.0000000E+000	3	3.19357e-07
2	0	0	0	0	0	0	296.527	-0.299994	-0.300079	-0.00124261	-0.00034508	-0.00034508	41	-2.19048e-06	7	5.0117e-09	6.57299e-10	0.000000000000000E+000	0.000000000000000E+000	8.5	2.19048e-06	0.000000000000000E+000	2.19048e-06	0.0000000E+000	3	3.72882e-07
2	1	0	0	0	0	0	300.327	-0.299994	-0.300079	-0.00128181	-0.000349891	-0.000349891	41	-3.52687e-06	7	5.0117e-09	1.0583e-09	0.000000000000000E+000	0.000000000000000E+000	12.3	3.52687e-06	0.000000000000000E+000	3.52687e-06	0.0000000E+000	3	3.84643e-07
2	0	0	0	0	0	0	304.127	-0.299994	-0.300117	-0.00131572	-0.000354847	-0.000354847	41	-4.90361e-06	7	5.0117e-09	1.47144e-09	0.000000000000000E+000	462041	16.1	4.90361e-06	0.000000000000000E+000	4.90361e-06	0.0000000E+000	3	3.94871e-07
2	0	0	0	0	0	0	307.927	-0.299994	-0.300045	-0.00133612	-0.000359889	-0.000359889	41	-6.30412e-06	7	5.0117e-09	1.89169e-09	0.000000000000000E+000	660462	19.9	6.30412e-06	0.000000000000000E+000	6.30412e-06	0.0000000E+000	3	4.00895e-07
2	0	0	0	0	0	0	311.727	-0.299994	-0.300048	-0.00134983	-0.000364987	-0.000364987	41	-7.72022e-06	7	5.0117e-09	2.31661e-09	0.000000000000000E+000	909826	23.7	7.72022e-06	0.000000000000000E+000	7.72022e-06	0.0000000E+000	3	4.05014e-07
2	0	0	0	0	0	0	315.527	-0.299994	-0.300083	-0.00136073	-0.000370122	-0.000370122	41	-9.14653e-06	7	5.0117e-09	2.74458e-09	0.000000000000000E+000	8.69971e+06	27.5	9.14653e-06	0.000000000000000E+000	9.14653e-06	0.0000000E+000	3	4.08331e-07
2	0	0	0	0	0	0	319.327	-0.299994	-0.300025	-0.00137297	-0.000375303	-0.000375303	41	-1.05858e-05	7	5.0117e-09	3.17646e-09	0.000000000000000E+000	712381	31.3	1.05858e-05	0.000000000000000E+000	1.05858e-05	0.0000000E+000	3	4.11926e-07
2	1	0	0	0	0	0	323.127	-0.299994	-0.300117	-0.00136096	-0.000380496	-0.000380496	41	-1.20282e-05	7	5.0117e-09	3.60928e-09	0.000000000000000E+000	1.13335e+06	35.1	1.20282e-05	0.000000000000000E+000	1.20282e-05	0.0000000E+000	3	4.08449e-07
2	1	0	0	0	0	0	326.927	-0.299994	-0.300083	-0.00137161	-0.000385687	-0.000385687	41	-1.34703e-05	7	5.0117e-09	4.04201e-09	0.000000000000000E+000	1.28123e+07	38.9	1.34703e-05	0.000000000000000E+000	1.34703e-05	0.0000000E+000	3	4.11597e-07
2	0	0	0	0	0	0	330.727	-0.299994	-0.300071	-0.00135847	-0.000390893	-0.000390893	41	-1.49164e-05	7	5.0117e-09	4.47596e-09	0.000000000000000E+000	7.03842e+06	42.7	1.49164e-05	0.000000000000000E+000	1.49164e-05	0.0000000E+000	3	4.07638e-07
2	0	0	0	0	0	0	334.527	-0.299994	-0.30006	-0.00138002	-0.000396104	-0.000396104	41	-1.63639e-05	7	5.0117e-09	4.91033e-09	0.000000000000000E+000	3.07896e+06	46.5	1.63639e-05	0.000000000000000E+000	1.63639e-05	0.0000000E+000	3	4.14089e-07
2	0	0	0	0	0	0	338.327	-0.299994	-0.300083	-0.00138509	-0.00040136	-0.00040136	41	-1.78239e-05	7	5.0117e-09	5.34842e-09	0.000000000000000E+000	1.69532e+07	50.3	1.78239e-05	0.000000000000000E+000	1.78239e-05	0.0000000E+000	3	4.15641e-07
2	0	0	0	0	0	0	342.127	-0.299994	-0.300071	-0.00139577	-0.000406645	-0.000406645	41	-1.9292e-05	7	5.0117e-09	5.78893e-09	0.000000000000000E+000	9.10309e+06	54.1	1.9292e-05	0.000000000000000E+000	1.9292e-05	0.0000000E+000	3	4.18831e-07
2	1	0	0	0	0	0	345.927	-0.299994	-0.300071	-0.00140708	-0.000411947	-0.000411947	41	-2.07647e-05	7	5.0117e-09	6.23079e-09	0.000000000000000E+000	9.68451e+06	57.9	2.07647e-05	0.000000000000000E+000	2.07647e-05	0.0000000E+000	3	4.22224e-07
2	0	0	0	0	0	0	349.727	-0.299994	-0.300029	-0.00139203	-0.000417261	-0.000417261	41	-2.22407e-05	7	5.0117e-09	6.67373e-09	0.000000000000000E+000	1.6097e+06	61.7	2.22407e-05	0.000000000000000E+000	2.22407e-05	0.0000000E+000	3	4.17649e-07
2	1	0	0	0	0	0	353.527	-0.299994	-0.300041	-0.00140095	-0.000422589	-0.000422589	41	-2.37207e-05	7	5.0117e-09	7.1178e-09	0.000000000000000E+000	2.23333e+06	65.5	2.37207e-05	0.000000000000000E+000	2.37207e-05	0.0000000E+000	3	4.20342e-07
2	0	0	0	0	0	0	357.327	-0.299994	-0.300117	-0.00140932	-0.000427927	-0.000427927	41	-2.52035e-05	7	5.0117e-09	7.56278e-09	0.000000000000000E+000	2.37479e+06	69.3	2.52035e-05	0.000000000000000E+000	2.52035e-05	0.0000000E+000	3	4.22962e-07
2	0	0	0	0	0	0	361.127	-0.299994	-0.300064	-0.00140235	-0.000433256	-0.000433256	41	-2.6684e-05	7	5.0117e-09	8.00701e-09	0.000000000000000E+000	6.27104e+06	73.1	2.6684e-05	0.000000000000000E+000	2.6684e-05	0.0000000E+000	3	4.20795e-07
2	0	0	0	0	0	0	364.927	-0.299994	-0.300045	-0.00141025	-0.000438601	-0.000438601	41	-2.81685e-05	7	5.0117e-09	8.45248e-09	0.000000000000000E+000	2.94346e+06	76.9	2.81685e-05	0.000000000000000E+000	2.81685e-05	0.0000000E+000	3	4.23137e-07
2	0	0	0	0	0	0	368.727	-0.299994	-0.300052	-0.0013978	-0.00044395	-0.00044395	41	-2.96543e-05	7	5.0117e-09	8.89833e-09	0.000000000000000E+000	3.98014e+06	80.7	2.96543e-05	0.000000000000000E+000	2.96543e-05	0.0000000E+000	3	4.19412e-07
2	1	0	0	0	0	0	372.527	-0.299994	-0.300083	-0.00141484	-0.000449306	-0.000449306	41	-3.11422e-05	7	5.0117e-09	9.34478e-09	0.000000000000000E+000	2.96209e+07	84.5	3.11422e-05	0.000000000000000E+000	3.11422e-05	0.0000000E+000	3	4.24569e-07
2	0	0	0	0	0	0	376.327	-0.299994	-0.300056	-0.00141118	-0.000454666	-0.000454666	41	-3.26311e-05	7	5.0117e-09	9.79153e-09	0.000000000000000E+000	5.10583e+06	88.3	3.26311e-05	0.000000000000000E+000	3.26311e-05	0.0000000E+000	3	4.23432e-07
2	1	0	0	0	0	0	380.127	-0.299994	-0.300102	-0.00141021	-0.00046003	-0.00046003	41	-3.41211e-05	7	5.0117e-09	1.02386e-08	0.000000000000000E+000	5.3598e+06	92.1	3.41211e-05	0.000000000000000E+000	3.41211e-05	0.0000000E+000	3	4.23207e-07
2	0	0	0	0	0	0	383.927	-0.299994	-0.30006	-0.00141319	-0.000465389	-0.000465389	41	-3.56096e-05	7	5.0117e-09	1.06854e-08	0.000000000000000E+000	6.70015e+06	95.9	3.56096e-05	0.000000000000000E+000	3.56096e-05	0.0000000E+000	3	4.24042e-07
2	0	0	0	0	0	0	387.727	-0.299994	-0.300098	-0.00140974	-0.000470746	-0.000470746	41	-3.70977e-05	7	5.0117e-09	1.11319e-08	0.000000000000000E+000	6.99103e+06	99.7	3.70977e-05	0.000000000000000E+000	3.70977e-05	0.0000000E+000	3	4.23061e-07
2	0	0	0	0	0	0	391.527	-0.299994	-0.300045	-0.0014115	-0.000476108	-0.000476108	41	-3.85873e-05	7	5.0117e-09	1.15788e-08	0.000000000000000E+000	4.03566e+06	103.5	3.85873e-05	0.000000000000000E+000	3.85873e-05	0.0000000E+000	3	4.23513e-07
2	0	0	0	0	0	0	395.327	-0.299994	-0.300056	-0.00140848	-0.000481471	-0.000481471	41	-4.0077e-05	7	5.0117e-09	1.20258e-08	0.000000000000000E+000	6.28719e+06	107.3	4.0077e-05	0.000000000000000E+000	4.0077e-05	0.0000000E+000	3	4.22622e-07
2	0	0	0	0	0	0	399.127	-0.299994	-0.300041	-0.00142467	-0.000486832	-0.000486832	41	-4.15661e-05	7	5.0117e-09	1.24726e-08	0.000000000000000E+000	3.9135e+06	111.1	4.15661e-05	0.000000000000000E+000	4.15661e-05	0.0000000E+000	3	4.2746e-07
2	1	0	0	0	0	0	402.927	-0.299994	-0.300102	-0.0014123	-0.000492195	-0.000492195	41	-4.30557e-05	7	5.0117e-09	1.29196e-08	0.000000000000000E+000	6.74573e+06	114.9	4.30557e-05	0.000000000000000E+000	4.30557e-05	0.0000000E+000	3	4.23833e-07
2	0	0	0	0	0	0	406.727	-0.299994	-0.299995	-0.0014044	-0.000497557	-0.000497557	41	-4.45453e-05	7	5.0117e-09	1.33666e-08	0.000000000000000E+000	1.90541e+06	118.7	4.45453e-05	0.000000000000000E+000	4.45453e-05	0.0000000E+000	3	4.21313e-07
2	1	0	0	0	0	0	410.527	-0.299994	-0.300056	-0.0014066	-0.000502918	-0.000502918	41	-4.60344e-05	7	5.0117e-09	1.38134e-08	0.000000000000000E+000	7.22178e+06	122.5	4.60344e-05	0.000000000000000E+000	4.60344e-05	0.0000000E+000	3	4.2206e-07
2	1	0	0	0	0	0	414.327	-0.299994	-0.300048	-0.00141384	-0.000508276	-0.000508276	41	-4.75227e-05	7	5.0117e-09	1.426e-08	0.000000000000000E+000	5.5842e+06	126.3	4.75227e-05	0.000000000000000E+000	4.75227e-05	0.0000000E+000	3	4.2422e-07
2	0	0	0	0	0	0	418.127	-0.299994	-0.300083	-0.00141223	-0.000513634	-0.000513634	41	-4.90112e-05	7	5.0117e-09	1.47066e-08	0.000000000000000E+000	4.66169e+07	130.1	4.90112e-05	0.000000000000000E+000	4.90112e-05	0.0000000E+000	3	4.23786e-07
2	0	0	0	0	0	0	421.927	-0.299994	-0.299987	-0.00140983	-0.000518981	-0.000518981	41	-5.04962e-05	7	5.0117e-09	1.51523e-08	0.000000000000000E+000	1.98108e+06	133.9	5.04962e-05	0.000000000000000E+000	5.04962e-05	0.0000000E+000	3	4.2293e-07
2	0	0	0	0	0	0	425.727	-0.299994	-0.300006	-0.00141709	-0.000524324	-0.000524324	41	-5.19806e-05	7	5.0117e-09	1.55976e-08	0.000000000000000E+000	2.57549e+06	137.7	5.19806e-05	0.000000000000000E+000	5.19806e-05	0.0000000E+000	3	4.25136e-07
2	0	0	0	0	0	0	429.527	-0.299994	-0.29998	-0.00140469	-0.000529665	-0.000529665	41	-5.34643e-05	7	5.0117e-09	1.60428e-08	0.000000000000000E+000	1.93651e+06	141.5	5.34643e-05	0.000000000000000E+000	5.34643e-05	0.0000000E+000	3	4.21379e-07
2	0	0	0	0	0	0	433.327	-0.299994	-0.299995	-0.00140555	-0.000535002	-0.000535002	41	-5.49466e-05	7	5.0117e-09	1.64875e-08	0.000000000000000E+000	2.35033e+06	145.3	5.49466e-05	0.000000000000000E+000	5.49466e-05	0.0000000E+000	3	4.21657e-07
2	0	0	0	0	0	0	437.127	-0.299994	-0.30011	-0.00140891	-0.00054034	-0.00054034	41	-5.64294e-05	7	5.0117e-09	1.69325e-08	0.000000000000000E+000	6.63724e+06	149.1	5.64294e-05	0.000000000000000E+000	5.64294e-05	0.0000000E+000	3	4.22829e-07
2	0	0	0	0	0	0	440.927	-0.299994	-0.300071	-0.00139904	-0.00054567	-0.00054567	41	-5.79099e-05	7	5.0117e-09	1.73767e-08	0.000000000000000E+000	2.70088e+07	152.9	5.79099e-05	0.000000000000000E+000	5.79099e-05	0.0000000E+000	3	4.19813e-07
2	0	0	0	0	0	0	444.727	-0.299994	-0.300025	-0.00140785	-0.000551002	-0.000551002	41	-5.93911e-05	7	5.0117e-09	1.78211e-08	0.000000000000000E+000	3.99232e+06	156.7	5.93911e-05	0.000000000000000E+000	5.93911e-05	0.0000000E+000	3	4.2239e-07
2	0	0	0	0	0	0	448.527	-0.299994	-0.300087	-0.00139989	-0.000556329	-0.000556329	41	-6.08709e-05	7	5.0117e-09	1.82652e-08	0.000000000000000E+000	2.88351e+07	160.5	6.08709e-05	0.000000000000000E+000	6.08709e-05	0.0000000E+000	3	4.2009e-07
2	0	0	0	0	0	0	452.327	-0.299994	-0.300075	-0.0014004	-0.000561654	-0.000561654	41	-6.23499e-05	7	5.0117e-09	1.8709e-08	0.000000000000000E+000	5.88407e+07	164.3	6.23499e-05	0.000000000000000E+000	6.23499e-05	0.0000000E+000	3	4.20227e-07
2	0	0	0	0	0	0	456.127	-0.299994	-0.300102	-0.00139151	-0.000566972	-0.000566972	41	-6.38272e-05	7	5.0117e-09	1.91522e-08	0.000000000000000E+000	1.00392e+07	168.1	6.38272e-05	0.000000000000000E+000	6.38272e-05	0.0000000E+000	3	4.17595e-07
2	0	0	0	0	0	0	459.927	-0.299994	-0.300079	-0.00139659	-0.000572292	-0.000572292	41	-6.53049e-05	7	5.0117e-09	1.95956e-08	0.000000000000000E+000	0.000000000000000E+000	171.9	6.53049e-05	0.000000000000000E+000	6.53049e-05	0.0000000E+000	3	4.19086e-07
2	0	0	0	0	0	0	463.727	-0.299994	-0.300037	-0.0013975	-0.000577606	-0.000577606	41	-6.67811e-05	7	5.0117e-09	2.00386e-08	0.000000000000000E+000	5.71714e+06	175.7	6.67811e-05	0.000000000000000E+000	6.67811e-05	0.0000000E+000	3	4.193e-07
2	0	0	0	0	0	0	467.527	-0.299994	-0.300006	-0.00140661	-0.000582915	-0.000582915	41	-6.82559e-05	7	5.0117e-09	2.04811e-08	0.000000000000000E+000	3.38188e+06	179.5	6.82559e-05	0.000000000000000E+000	6.82559e-05	0.0000000E+000	3	4.21991e-07
2	1	0	0	0	0	0	471.327	-0.299994	-0.300052	-0.00140623	-0.000588222	-0.000588222	41	-6.97299e-05	7	5.0117e-09	2.09233e-08	0.000000000000000E+000	9.37983e+06	183.3	6.97299e-05	0.000000000000000E+000	6.97299e-05	0.0000000E+000	3	4.21943e-07
2	1	0	0	0	0	0	475.127	-0.299994	-0.300083	-0.00140108	-0.000593515	-0.000593515	41	-7.12003e-05	7	5.0117e-09	2.13645e-08	0.000000000000000E+000	6.77221e+07	187.1	7.12003e-05	0.000000000000000E+000	7.12003e-05	0.0000000E+000	3	4.2044e-07
2	0	0	0	0	0	0	478.927	-0.299994	-0.300075	-0.00139297	-0.000598802	-0.000598802	41	-7.26688e-05	7	5.0117e-09	2.18052e-08	0.000000000000000E+000	6.80473e+07	190.9	7.26688e-05	0.000000000000000E+000	7.26688e-05	0.0000000E+000	3	4.17996e-07
2	0	0	0	0	0	0	482.727	-0.299994	-0.300087	-0.00138182	-0.000604076	-0.000604076	41	-7.41338e-05	7	5.0117e-09	2.22448e-08	0.000000000000000E+000	3.51179e+07	194.7	7.41338e-05	0.000000000000000E+000	7.41338e-05	0.0000000E+000	3	4.14666e-07
2	1	0	0	0	0	0	486.527	-0.299994	-0.300083	-0.0013808	-0.000609344	-0.000609344	41	-7.55972e-05	7	5.0117e-09	2.26838e-08	0.000000000000000E+000	7.19042e+07	198.5	7.55972e-05	0.000000000000000E+000	7.55972e-05	0.0000000E+000	3	4.14353e-07
2	1	0	0	0	0	0	490.327	-0.299994	-0.300045	-0.0013758	-0.000614606	-0.000614606	41	-7.70588e-05	7	5.0117e-09	2.31224e-08	0.000000000000000E+000	8.05224e+06	202.3	7.70588e-05	0.000000000000000E+000	7.70588e-05	0.0000000E+000	3	4.12802e-07
2	0	0	0	0	0	0	494.127	-0.299994	-0.300136	-0.00136936	-0.000619851	-0.000619851	41	-7.85158e-05	7	5.0117e-09	2.35596e-08	0.000000000000000E+000	4.93208e+06	206.1	7.85158e-05	0.000000000000000E+000	7.85158e-05	0.0000000E+000	3	4.10994e-07
2	0	0	0	0	0	0	497.927	-0.299994	-0.300018	-0.00137121	-0.000625084	-0.000625084	41	-7.99696e-05	7	5.0117e-09	2.39959e-08	0.000000000000000E+000	4.70531e+06	209.9	7.99696e-05	0.000000000000000E+000	7.99696e-05	0.0000000E+000	3	4.11389e-07
2	0	0	0	0	0	0	501.727	-0.299994	-0.300033	-0.00137815	-0.000630304	-0.000630304	41	-8.14194e-05	7	5.0117e-09	2.44309e-08	0.000000000000000E+000	6.3906e+06	213.7	8.14194e-05	0.000000000000000E+000	8.14194e-05	0.0000000E+000	3	4.13492e-07
2	0	0	0	0	0	0	505.527	-0.299994	-0.300068	-0.00136213	-0.000635501	-0.000635501	41	-8.2863e-05	7	5.0117e-09	2.4864e-08	0.000000000000000E+000	2.60664e+07	217.5	8.2863e-05	0.000000000000000E+000	8.2863e-05	0.0000000E+000	3	4.08731e-07
2	0	0	0	0	0	0	509.327	-0.299994	-0.299995	-0.00136153	-0.000640679	-0.000640679	41	-8.43013e-05	7	5.0117e-09	2.52955e-08	0.000000000000000E+000	3.6098e+06	221.3	8.43013e-05	0.000000000000000E+000	8.43013e-05	0.0000000E+000	3	4.08453e-07
2	0	0	0	0	0	0	513.127	-0.299994	-0.300029	-0.00135003	-0.000645833	-0.000645833	41	-8.57329e-05	7	5.0117e-09	2.57251e-08	0.000000000000000E+000	6.20502e+06	225.1	8.57329e-05	0.000000000000000E+000	8.57329e-05	0.0000000E+000	3	4.05049e-07
2	1	0	0	0	0	0	516.927	-0.299994	-0.299995	-0.00134457	-0.000650964	-0.000650964	41	-8.71584e-05	7	5.0117e-09	2.61527e-08	0.000000000000000E+000	3.73215e+06	228.9	8.71584e-05	0.000000000000000E+000	8.71584e-05	0.0000000E+000	3	4.03363e-07
2	0	0	0	0	0	0	520.727	-0.299994	-0.300087	-0.00134064	-0.000656067	-0.000656067	41	-8.85757e-05	7	5.0117e-09	2.6578e-08	0.000000000000000E+000	4.19592e+07	232.7	8.85757e-05	0.000000000000000E+000	8.85757e-05	0.0000000E+000	3	4.02307e-07
2	1	0	0	0	0	0	524.527	-0.299994	-0.300045	-0.00133771	-0.000661144	-0.000661144	41	-8.99861e-05	7	5.0117e-09	2.70012e-08	0.000000000000000E+000	9.42754e+06	236.5	8.99861e-05	0.000000000000000E+000	8.99861e-05	0.0000000E+000	3	4.01373e-07
2	1	0	0	0	0	0	528.327	-0.299994	-0.300026	-0.00131677	-0.000666189	-0.000666189	41	-9.13875e-05	7	5.0117e-09	2.74217e-08	0.000000000000000E+000	6.15342e+06	240.3	9.13875e-05	0.000000000000000E+000	9.13875e-05	0.0000000E+000	3	3.95066e-07
2	0	0	0	0	0	0	532.127	-0.299994	-0.300136	-0.00132173	-0.000671192	-0.000671192	41	-9.27772e-05	7	5.0117e-09	2.78387e-08	0.000000000000000E+000	5.8249e+06	244.1	9.27772e-05	0.000000000000000E+000	9.27772e-05	0.0000000E+000	3	3.96699e-07
2	0	0	0	0	0	0	535.927	-0.299994	-0.300048	-0.00128908	-0.000676158	-0.000676158	41	-9.41568e-05	7	5.0117e-09	2.82526e-08	0.000000000000000E+000	1.10963e+07	247.9	9.41568e-05	0.000000000000000E+000	9.41568e-05	0.0000000E+000	3	3.86785e-07
2	0	0	0	0	0	0	539.727	-0.299994	-0.300045	-0.00128918	-0.000681086	-0.000681086	41	-9.55255e-05	7	5.0117e-09	2.86633e-08	0.000000000000000E+000	9.99056e+06	251.7	9.55255e-05	0.000000000000000E+000	9.55255e-05	0.0000000E+000	3	3.86813e-07
2	0	0	0	0	0	0	543.527	-0.299994	-0.300037	-0.00128263	-0.000685982	-0.000685982	41	-9.68856e-05	7	5.0117e-09	2.90714e-08	0.000000000000000E+000	8.2944e+06	255.5	9.68856e-05	0.000000000000000E+000	9.68856e-05	0.0000000E+000	3	3.84837e-07
2	0	0	0	0	0	0	547.327	-0.299994	-0.300056	-0.00126902	-0.00069085	-0.00069085	41	-9.82378e-05	7	5.0117e-09	2.94772e-08	0.000000000000000E+000	1.54113e+07	259.3	9.82378e-05	0.000000000000000E+000	9.82378e-05	0.0000000E+000	3	3.80778e-07
2	1	0	0	0	0	0	551.127	-0.299994	-0.30009	-0.00127976	-0.000695695	-0.000695695	41	-9.95837e-05	7	5.0117e-09	2.9881e-08	0.000000000000000E+000	3.1245e+07	263.1	9.95837e-05	0.000000000000000E+000	9.95837e-05	0.0000000E+000	3	3.84043e-07
2	1	0	0	0	0	0	554.927	-0.299994	-0.300033	-0.00125529	-0.000700527	-0.000700527	41	-0.000100926	7	5.0117e-09	3.02838e-08	0.000000000000000E+000	7.91138e+06	266.9	0.000100926	0.000000000000000E+000	0.000100926	0.0000000E+000	3	3.76628e-07
2	1	0	0	0	0	0	558.727	-0.299994	-0.300075	-0.0012673	-0.000705348	-0.000705348	41	-0.000102265	7	5.0117e-09	3.06856e-08	0.000000000000000E+000	9.65094e+07	270.7	0.000102265	0.000000000000000E+000	0.000102265	0.0000000E+000	3	3.80286e-07
2	0	0	0	0	0	0	562.527	-0.299994	-0.30011	-0.00127152	-0.000710148	-0.000710148	41	-0.000103598	7	5.0117e-09	3.10857e-08	0.000000000000000E+000	1.21853e+07	274.5	0.000103598	0.000000000000000E+000	0.000103598	0.0000000E+000	3	3.81596e-07
2	0	0	0	0	0	0	566.327	-0.299994	-0.30001	-0.00125913	-0.000714911	-0.000714911	41	-0.000104921	7	5.0117e-09	3.14827e-08	0.000000000000000E+000	5.48424e+06	278.3	0.000104921	0.000000000000000E+000	0.000104921	0.0000000E+000	3	3.77752e-07
2	0	0	0	0	0	0	570.127	-0.299994	-0.300022	-0.00124137	-0.000719654	-0.000719654	41	-0.000106239	7	5.0117e-09	3.1878e-08	0.000000000000000E+000	6.66661e+06	282.1	0.000106239	0.000000000000000E+000	0.000106239	0.0000000E+000	3	3.72438e-07
2	0	0	0	0	0	0	573.927	-0.299994	-0.300041	-0.00124835	-0.000724393	-0.000724393	41	-0.000107555	7	5.0117e-09	3.2273e-08	0.000000000000000E+000	1.01264e+07	285.9	0.000107555	0.000000000000000E+000	0.000107555	0.0000000E+000	3	3.74556e-07
2	1	0	0	0	0	0	577.727	-0.299994	-0.300025	-0.00127588	-0.000729184	-0.000729184	41	-0.000108886	7	5.0117e-09	3.26723e-08	0.000000000000000E+000	7.31941e+06	289.7	0.000108886	0.000000000000000E+000	0.000108886	0.0000000E+000	3	3.82797e-07
2	0	0	0	0	0	0	581.527	-0.299994	-0.300052	-0.00128698	-0.000734054	-0.000734054	41	-0.000110239	7	5.0117e-09	3.30783e-08	0.000000000000000E+000	1.48455e+07	293.5	0.000110239	0.000000000000000E+000	0.000110239	0.0000000E+000	3	3.8616e-07
2	1	0	0	0	0	0	585.327	-0.299994	-0.300052	-0.00130106	-0.000738984	-0.000738984	41	-0.000111608	7	5.0117e-09	3.34891e-08	0.000000000000000E+000	1.49798e+07	297.3	0.000111608	0.000000000000000E+000	0.000111608	0.0000000E+000	3	3.90386e-07
2	0	0	0	0	0	0	589.127	-0.299994	-0.30009	-0.00132008	-0.000743965	-0.000743965	41	-0.000112992	7	5.0117e-09	3.39043e-08	0.000000000000000E+000	3.54518e+07	301.1	0.000112992	0.000000000000000E+000	0.000112992	0.0000000E+000	3	3.96142e-07
2	0	0	0	0	0	0	592.927	-0.299994	-0.300033	-0.00129836	-0.000748944	-0.000748944	41	-0.000114375	7	5.0117e-09	3.43194e-08	0.000000000000000E+000	8.95981e+06	304.9	0.000114375	0.000000000000000E+000	0.000114375	0.0000000E+000	3	3.89551e-07
2	0	0	0	0	0	0	596.727	-0.299994	-0.30001	-0.00128704	-0.000753902	-0.000753902	41	-0.000115752	7	5.0117e-09	3.47326e-08	0.000000000000000E+000	6.05037e+06	308.7	0.000115752	0.000000000000000E+000	0.000115752	0.0000000E+000	3	3.86126e-07
2	0	0	0	0	0	0	600.527	-0.299994	-0.30006	-0.00127679	-0.00075879	-0.00075879	41	-0.00011711	7	5.0117e-09	3.514e-08	0.000000000000000E+000	2.20349e+07	312.5	0.00011711	0.000000000000000E+000	0.00011711	0.0000000E+000	3	3.83112e-07
2	1	0	0	0	0	0	604.327	-0.299994	-0.300041	-0.00125606	-0.000763604	-0.000763604	41	-0.000118447	7	5.0117e-09	3.55412e-08	0.000000000000000E+000	1.11519e+07	316.3	0.000118447	0.000000000000000E+000	0.000118447	0.0000000E+000	3	3.76869e-07
2	0	0	0	0	0	0	608.127	-0.299994	-0.300117	-0.00125381	-0.000768387	-0.000768387	41	-0.000119776	7	5.0117e-09	3.59399e-08	0.000000000000000E+000	1.12858e+07	320.1	0.000119776	0.000000000000000E+000	0.000119776	0.0000000E+000	3	3.7629e-07
2	1	0	0	0	0	0	611.927	-0.299994	-0.300037	-0.00123543	-0.000773132	-0.000773132	41	-0.000121094	7	5.0117e-09	3.63354e-08	0.000000000000000E+000	1.03669e+07	323.9	0.000121094	0.000000000000000E+000	0.000121094	0.0000000E+000	3	3.70676e-07
2	0	0	0	0	0	0	615.727	-0.299994	-0.300048	-0.00122874	-0.000777859	-0.000777859	41	-0.000122407	7	5.0117e-09	3.67295e-08	0.000000000000000E+000	1.44256e+07	327.7	0.000122407	0.000000000000000E+000	0.000122407	0.0000000E+000	3	3.68682e-07
2	0	0	0	0	0	0	619.527	-0.299994	-0.300067	-0.00124745	-0.000782567	-0.000782567	41	-0.000123715	7	5.0117e-09	3.71219e-08	0.000000000000000E+000	3.86156e+07	331.5	0.000123715	0.000000000000000E+000	0.000123715	0.0000000E+000	3	3.7432e-07
2	0	0	0	0	0	0	623.327	-0.299994	-0.300037	-0.0012305	-0.000787315	-0.000787315	41	-0.000125034	7	5.0117e-09	3.75176e-08	0.000000000000000E+000	1.07041e+07	335.3	0.000125034	0.000000000000000E+000	0.000125034	0.0000000E+000	3	3.69195e-07
2	0	0	0	0	0	0	627.127	-0.299994	-0.300071	-0.00124793	-0.000792057	-0.000792057	41	-0.000126351	7	5.0117e-09	3.79128e-08	0.000000000000000E+000	5.96197e+07	339.1	0.000126351	0.000000000000000E+000	0.000126351	0.0000000E+000	3	3.74467e-07
2	1	0	0	0	0	0	630.927	-0.299994	-0.29998	-0.00125256	-0.000796804	-0.000796804	41	-0.000127669	7	5.0117e-09	3.83085e-08	0.000000000000000E+000	4.62427e+06	342.9	0.000127669	0.000000000000000E+000	0.000127669	0.0000000E+000	3	3.75742e-07
2	1	0	0	0	0	0	634.727	-0.299994	-0.300083	-0.00125108	-0.000801555	-0.000801555	41	-0.000128989	7	5.0117e-09	3.87045e-08	0.000000000000000E+000	1.22688e+08	346.7	0.000128989	0.000000000000000E+000	0.000128989	0.0000000E+000	3	3.75427e-07
2	0	0	0	0	0	0	638.527	-0.299994	-0.300075	-0.00124653	-0.000806304	-0.000806304	41	-0.000130308	7	5.0117e-09	3.91004e-08	0.000000000000000E+000	1.22974e+08	350.5	0.000130308	0.000000000000000E+000	0.000130308	0.0000000E+000	3	3.74052e-07
2	1	0	0	0	0	0	642.327	-0.299994	-0.300094	-0.00125492	-0.000811057	-0.000811057	41	-0.000131629	7	5.0117e-09	3.94965e-08	0.000000000000000E+000	3.09945e+07	354.3	0.000131629	0.000000000000000E+000	0.000131629	0.0000000E+000	3	3.76594e-07
2	1	0	0	0	0	0	646.127	-0.299994	-0.300067	-0.00125022	-0.000815793	-0.000815793	41	-0.000132944	7	5.0117e-09	3.98913e-08	0.000000000000000E+000	4.16039e+07	358.1	0.000132944	0.000000000000000E+000	0.000132944	0.0000000E+000	3	3.75151e-07
2	0	0	0	0	0	0	649.927	-0.299994	-0.30011	-0.00123627	-0.000820521	-0.000820521	41	-0.000134258	7	5.0117e-09	4.02855e-08	0.000000000000000E+000	1.58377e+07	361.9	0.000134258	0.000000000000000E+000	0.000134258	0.0000000E+000	3	3.71015e-07
2	0	0	0	0	0	0	653.727	-0.299994	-0.300045	-0.00123869	-0.00082523	-0.00082523	41	-0.000135565	7	5.0117e-09	4.06779e-08	0.000000000000000E+000	1.41781e+07	365.7	0.000135565	0.000000000000000E+000	0.000135565	0.0000000E+000	3	3.71662e-07
2	0	0	0	0	0	0	657.527	-0.299994	-0.300029	-0.00123055	-0.000829912	-0.000829912	41	-0.000136866	7	5.0117e-09	4.10682e-08	0.000000000000000E+000	9.90585e+06	369.5	0.000136866	0.000000000000000E+000	0.000136866	0.0000000E+000	3	3.69201e-07
2	0	0	0	0	0	0	661.327	-0.299994	-0.300064	-0.00121741	-0.000834558	-0.000834558	41	-0.000138157	7	5.0117e-09	4.14555e-08	0.000000000000000E+000	3.24684e+07	373.3	0.000138157	0.000000000000000E+000	0.000138157	0.0000000E+000	3	3.65299e-07
2	0	0	0	0	0	0	665.127	-0.299994	-0.300083	-0.00117411	-0.000839115	-0.000839115	41	-0.000139422	7	5.0117e-09	4.18353e-08	0.000000000000000E+000	1.32611e+08	377.1	0.000139422	0.000000000000000E+000	0.000139422	0.0000000E+000	3	3.52331e-07
2	0	0	0	0	0	0	668.927	-0.299994	-0.300071	-0.00110549	-0.000843448	-0.000843448	41	-0.000140626	7	5.0117e-09	4.21965e-08	0.000000000000000E+000	6.63558e+07	380.9	0.000140626	0.000000000000000E+000	0.000140626	0.0000000E+000	3	3.31726e-07
2	1	0	0	0	0	0	672.727	-0.299994	-0.300041	-0.000952059	-0.000847387	-0.000847387	41	-0.00014172	7	5.0117e-09	4.25247e-08	0.000000000000000E+000	1.33431e+07	384.7	0.00014172	0.000000000000000E+000	0.00014172	0.0000000E+000	3	2.85656e-07
2	1	0	0	0	0	0	676.527	-0.299994	-0.30006	-0.00080416	-0.000850663	-0.000850663	41	-0.00014263	7	5.0117e-09	4.27979e-08	0.000000000000000E+000	2.68367e+07	388.5	0.00014263	0.000000000000000E+000	0.00014263	0.0000000E+000	3	2.41296e-07
2	1	0	0	0	0	0	680.327	-0.299994	-0.300064	-0.000984839	-0.000853964	-0.000853964	41	-0.000143547	7	5.0117e-09	4.3073e-08	0.000000000000000E+000	3.37353e+07	392.3	0.000143547	0.000000000000000E+000	0.000143547	0.0000000E+000	3	2.95514e-07
2	0	0	0	0	0	0	684.127	-0.299994	-0.300056	-0.00116305	-0.000858113	-0.000858113	41	-0.0001447	7	5.0117e-09	4.34189e-08	0.000000000000000E+000	2.27002e+07	396.1	0.0001447	0.000000000000000E+000	0.0001447	0.0000000E+000	3	3.4898e-07
2	0	0	0	0	0	0	687.927	-0.299994	-0.30006	-0.00123476	-0.000862726	-0.000862726	41	-0.000145981	7	5.0117e-09	4.38034e-08	0.000000000000000E+000	2.74672e+07	399.9	0.000145981	0.000000000000000E+000	0.000145981	0.0000000E+000	3	3.70502e-07
2	0	0	0	0	0	0	691.727	-0.299994	-0.300071	-0.00127126	-0.000867496	-0.000867496	41	-0.000147306	7	5.0117e-09	4.4201e-08	0.000000000000000E+000	6.95078e+07	403.7	0.000147306	0.000000000000000E+000	0.000147306	0.0000000E+000	3	3.8147e-07
2	0	0	0	0	0	0	695.527	-0.299994	-0.300083	-0.00128353	-0.000872331	-0.000872331	41	-0.000148649	7	5.0117e-09	4.4604e-08	0.000000000000000E+000	1.41387e+08	407.5	0.000148649	0.000000000000000E+000	0.000148649	0.0000000E+000	3	3.85165e-07
2	0	0	0	0	0	0	699.327	-0.299994	-0.300113	-0.00129775	-0.000877223	-0.000877223	41	-0.000150008	7	5.0117e-09	4.50117e-08	0.000000000000000E+000	1.57022e+07	411.3	0.000150008	0.000000000000000E+000	0.000150008	0.0000000E+000	3	3.89472e-07
2	1	0	0	0	0	0	703.127	-0.299994	-0.30011	-0.00129862	-0.000882148	-0.000882148	41	-0.000151376	7	5.0117e-09	4.54223e-08	0.000000000000000E+000	1.78571e+07	415.1	0.000151376	0.000000000000000E+000	0.000151376	0.0000000E+000	3	3.89727e-07
2	0	0	0	0	0	0	706.927	-0.299994	-0.300113	-0.00129392	-0.000887094	-0.000887094	41	-0.00015275	7	5.0117e-09	4.58346e-08	0.000000000000000E+000	1.59892e+07	418.9	0.00015275	0.000000000000000E+000	0.00015275	0.0000000E+000	3	3.88323e-07
2	1	0	0	0	0	0	710.727	-0.299994	-0.300067	-0.00131573	-0.000892059	-0.000892059	41	-0.000154129	7	5.0117e-09	4.62484e-08	0.000000000000000E+000	4.82337e+07	422.7	0.000154129	0.000000000000000E+000	0.000154129	0.0000000E+000	3	3.94807e-07
2	0	0	0	0	0	0	714.527	-0.299994	-0.30009	-0.00130457	-0.000897034	-0.000897034	41	-0.000155511	7	5.0117e-09	4.66631e-08	0.000000000000000E+000	4.90473e+07	426.5	0.000155511	0.000000000000000E+000	0.000155511	0.0000000E+000	3	3.91489e-07
2	0	0	0	0	0	0	718.327	-0.299994	-0.300037	-0.00129929	-0.000902007	-0.000902007	41	-0.000156892	7	5.0117e-09	4.70776e-08	0.000000000000000E+000	1.34316e+07	430.3	0.000156892	0.000000000000000E+000	0.000156892	0.0000000E+000	3	3.89836e-07
2	0	0	0	0	0	0	722.127	-0.299994	-0.300125	-0.00130775	-0.000906978	-0.000906978	41	-0.000158273	7	5.0117e-09	4.7492e-08	0.000000000000000E+000	1.24148e+07	434.1	0.000158273	0.000000000000000E+000	0.000158273	0.0000000E+000	3	3.92489e-07
2	0	0	0	0	0	0	725.927	-0.299994	-0.300083	-0.00132113	-0.00091194	-0.00091194	41	-0.000159652	7	5.0117e-09	4.79056e-08	0.000000000000000E+000	1.51852e+08	437.9	0.000159652	0.000000000000000E+000	0.000159652	0.0000000E+000	3	3.96449e-07
2	1	0	0	0	0	0	729.727	-0.299994	-0.300079	-0.00128629	-0.000916887	-0.000916887	41	-0.000161026	7	5.0117e-09	4.83179e-08	0.000000000000000E+000	0.000000000000000E+000	441.7	0.000161026	0.000000000000000E+000	0.000161026	0.0000000E+000	3	3.85989e-07
2	0	0	0	0	0	0	733.527	-0.299994	-0.300083	-0.00130325	-0.000921831	-0.000921831	41	-0.000162399	7	5.0117e-09	4.873e-08	0.000000000000000E+000	1.54466e+08	445.5	0.000162399	0.000000000000000E+000	0.000162399	0.0000000E+000	3	3.91083e-07
2	1	0	0	0	0	0	737.327	-0.299994	-0.300075	-0.00130615	-0.000926789	-0.000926789	41	-0.000163776	7	5.0117e-09	4.91433e-08	0.000000000000000E+000	1.51019e+08	449.3	0.000163776	0.000000000000000E+000	0.000163776	0.0000000E+000	3	3.91944e-07
2	1	0	0	0	0	0	741.127	-0.299994	-0.300113	-0.00132675	-0.000931805	-0.000931805	41	-0.00016517	7	5.0117e-09	4.95614e-08	0.000000000000000E+000	1.73193e+07	453.1	0.00016517	0.000000000000000E+000	0.00016517	0.0000000E+000	3	3.98177e-07
2	0	0	0	0	0	0	744.927	-0.299994	-0.300052	-0.00132855	-0.000936826	-0.000936826	41	-0.000166565	7	5.0117e-09	4.998e-08	0.000000000000000E+000	2.24307e+07	456.9	0.000166565	0.000000000000000E+000	0.000166565	0.0000000E+000	3	3.98635e-07
2	0	0	0	0	0	0	748.727	-0.299994	-0.30009	-0.00131841	-0.00094185	-0.00094185	41	-0.00016796	7	5.0117e-09	5.03988e-08	0.000000000000000E+000	5.26984e+07	460.7	0.00016796	0.000000000000000E+000	0.00016796	0.0000000E+000	3	3.95642e-07
2	0	0	0	0	0	0	752.527	-0.299994	-0.300025	-0.00132867	-0.000946883	-0.000946883	41	-0.000169358	7	5.0117e-09	5.08183e-08	0.000000000000000E+000	1.13844e+07	464.5	0.000169358	0.000000000000000E+000	0.000169358	0.0000000E+000	3	3.98634e-07
2	0	0	0	0	0	0	756.327	-0.299994	-0.300144	-0.00133203	-0.000951926	-0.000951926	41	-0.000170759	7	5.0117e-09	5.12386e-08	0.000000000000000E+000	9.46625e+06	468.3	0.000170759	0.000000000000000E+000	0.000170759	0.0000000E+000	3	3.99802e-07
2	1	0	0	0	0	0	760.127	-0.299994	-0.300129	-0.00131832	-0.000956971	-0.000956971	41	-0.00017216	7	5.0117e-09	5.16592e-08	0.000000000000000E+000	1.24678e+07	472.1	0.00017216	0.000000000000000E+000	0.00017216	0.0000000E+000	3	3.95664e-07
2	1	0	0	0	0	0	763.927	-0.299994	-0.30006	-0.00133027	-0.000962011	-0.000962011	41	-0.00017356	7	5.0117e-09	5.20793e-08	0.000000000000000E+000	3.26563e+07	475.9	0.00017356	0.000000000000000E+000	0.00017356	0.0000000E+000	3	3.99161e-07
2	1	0	0	0	0	0	767.727	-0.299994	-0.300071	-0.00134486	-0.000967069	-0.000967069	41	-0.000174965	7	5.0117e-09	5.25009e-08	0.000000000000000E+000	8.25589e+07	479.7	0.000174965	0.000000000000000E+000	0.000174965	0.0000000E+000	3	4.03553e-07
2	0	0	0	0	0	0	771.527	-0.299994	-0.300102	-0.00132371	-0.000972113	-0.000972113	41	-0.000176366	7	5.0117e-09	5.29213e-08	0.000000000000000E+000	2.774e+07	483.5	0.000176366	0.000000000000000E+000	0.000176366	0.0000000E+000	3	3.97249e-07
2	0	0	0	0	0	0	775.327	-0.299994	-0.300068	-0.00133298	-0.000977166	-0.000977166	41	-0.00017777	7	5.0117e-09	5.33425e-08	0.000000000000000E+000	5.59216e+07	487.3	0.00017777	0.000000000000000E+000	0.00017777	0.0000000E+000	3	3.99983e-07
2	0	0	0	0	0	0	779.127	-0.299994	-0.300094	-0.00132587	-0.000982219	-0.000982219	41	-0.000179174	7	5.0117e-09	5.37637e-08	0.000000000000000E+000	4.219e+07	491.1	0.000179174	0.000000000000000E+000	0.000179174	0.0000000E+000	3	3.97886e-07
2	0	0	0	0	0	0	782.927	-0.299994	-0.300106	-0.00133806	-0.000987273	-0.000987273	41	-0.000180578	7	5.0117e-09	5.4185e-08	0.000000000000000E+000	2.43449e+07	494.9	0.000180578	0.000000000000000E+000	0.000180578	0.0000000E+000	3	4.01558e-07
2	0	0	0	0	0	0	786.727	-0.299994	-0.300033	-0.0013334	-0.000992337	-0.000992337	41	-0.000181984	7	5.0117e-09	5.46071e-08	0.000000000000000E+000	1.42839e+07	498.7	0.000181984	0.000000000000000E+000	0.000181984	0.0000000E+000	3	4.00063e-07
2	1	0	0	0	0	0	790.527	-0.299994	-0.300041	-0.00132685	-0.000997395	-0.000997395	41	-0.000183389	7	5.0117e-09	5.50287e-08	0.000000000000000E+000	1.72663e+07	502.5	0.000183389	0.000000000000000E+000	0.000183389	0.0000000E+000	3	3.98108e-07
2	0	0	0	0	0	0	794.327	-0.299994	-0.300075	-0.00132984	-0.00100245	-0.00100245	41	-0.000184795	7	5.0117e-09	5.54504e-08	0.000000000000000E+000	1.704e+08	506.3	0.000184795	0.000000000000000E+000	0.000184795	0.0000000E+000	3	3.99053e-07
2	0	0	0	0	0	0	798.127	-0.299994	-0.300064	-0.00134152	-0.00100751	-0.00100751	41	-0.0001862	7	5.0117e-09	5.58721e-08	0.000000000000000E+000	4.37591e+07	510.1	0.0001862	0.000000000000000E+000	0.0001862	0.0000000E+000	3	4.02541e-07
2	1	0	0	0	0	0	801.494	-0.299994	-0.30006	-0.00135709	-0.00101199	-0.00101199	41	-0.000187442	7	5.0117e-09	5.62448e-08	0.000000000000000E+000	3.52683e+07	513.466	0.000187442	0.000000000000000E+000	0.000187442	1122.34	3	4.07209e-07