File: Fig 1/Fig 1_RRDE-bf-Fe3O4_5mVs_disk.mpt
mode	ox/red	error	control changes	counter inc.	time/s	control/V	Ewe/V	<I>/mA	cycle number	(Q-Qo)/C	I Range	step time/s	P/W
2	1	1	0	0	0.000000000000000E+000	-0.3	-0.300583	0.205864	1	0.0000000E+000	40	0.000000000000000E+000	-6.18791e-05
2	0	0	1	0	2.1103	-0.310551	-0.310566	-0.000247877	1	4.19042e-06	40	1.2001	7.69821e-08
2	0	0	1	0	4.3106	-0.321552	-0.321551	-0.000376941	1	2.77154e-06	40	3.4004	1.21206e-07
2	1	0	0	0	6.5108	-0.332553	-0.332552	-0.0004345	1	1.15142e-06	40	5.6006	1.44494e-07
2	0	0	1	0	8.711	-0.343555	-0.343553	-0.000495565	1	-5.75612e-07	40	7.8008	1.70253e-07
2	1	0	0	0	10.9112	-0.354556	-0.354553	-0.00050454	1	-2.39515e-06	40	10.001	1.78887e-07
2	0	0	1	0	13.1114	-0.365557	-0.365561	-0.000541142	1	-4.29219e-06	40	12.2012	1.9782e-07
2	0	0	0	0	15.3116	-0.376558	-0.376559	-0.000584192	1	-6.26622e-06	40	14.4014	2.19983e-07
2	0	0	1	0	17.5118	-0.387559	-0.387557	-0.00061568	1	-8.30428e-06	40	16.6016	2.38611e-07
2	0	0	1	0	19.7122	-0.39856	-0.398555	-0.000642085	1	-1.04128e-05	40	18.802	2.55906e-07
2	0	0	0	0	21.9124	-0.409561	-0.409537	-0.00063776	1	-1.25902e-05	40	21.0022	2.61186e-07
2	0	0	1	0	24.1126	-0.420563	-0.420535	-0.00064885	1	-1.48435e-05	40	23.2024	2.72864e-07
2	0	0	0	0	26.3128	-0.431564	-0.431538	-0.000689516	1	-1.71731e-05	40	25.4026	2.97553e-07
2	0	0	1	0	28.513	-0.442565	-0.442542	-0.000744666	1	-1.95761e-05	40	27.6028	3.29546e-07
2	0	0	0	0	30.7132	-0.453566	-0.453543	-0.000776249	1	-2.20342e-05	40	29.803	3.52063e-07
2	0	0	1	0	32.9134	-0.464567	-0.46456	-0.000800678	1	-2.45442e-05	40	32.0032	3.71963e-07
2	0	0	1	0	35.1137	-0.475568	-0.475545	-0.000775631	1	-2.70831e-05	40	34.2035	3.68848e-07
2	0	0	0	0	37.314	-0.486569	-0.486534	-0.000763777	1	-2.9638e-05	40	36.4038	3.71604e-07
2	1	0	1	0	39.5142	-0.497571	-0.497524	-0.000775391	1	-3.22002e-05	40	38.604	3.85776e-07
2	1	0	0	0	41.7144	-0.508572	-0.508538	-0.000770628	1	-3.47792e-05	40	40.8042	3.91894e-07
2	0	0	1	0	43.9146	-0.519573	-0.519553	-0.000784141	1	-3.73854e-05	40	43.0044	4.07403e-07
2	0	0	0	0	46.1148	-0.530574	-0.530556	-0.000778559	1	-4.0042e-05	40	45.2046	4.13069e-07
2	0	0	1	0	48.315	-0.541575	-0.541538	-0.00081292	1	-4.27515e-05	40	47.4048	4.40228e-07
2	0	0	1	0	50.5153	-0.552576	-0.552545	-0.000834482	1	-4.55206e-05	40	49.6051	4.61089e-07
2	0	0	0	0	52.7156	-0.563577	-0.563542	-0.000841596	1	-4.83488e-05	40	51.8054	4.74274e-07
2	1	0	1	0	54.9158	-0.574578	-0.574542	-0.000849262	1	-5.12517e-05	40	54.0056	4.87937e-07
2	0	0	0	0	57.116	-0.58558	-0.585537	-0.000894826	1	-5.42281e-05	40	56.2058	5.23953e-07
2	0	0	1	0	59.3162	-0.596581	-0.596539	-0.000939375	1	-5.72781e-05	40	58.406	5.60374e-07
2	0	0	0	0	61.5164	-0.607582	-0.607555	-0.000985944	1	-6.04214e-05	40	60.6062	5.99016e-07
2	0	0	1	0	63.7166	-0.618583	-0.618547	-0.000976995	1	-6.36485e-05	40	62.8064	6.04318e-07
2	0	0	1	0	65.9169	-0.629585	-0.629553	-0.00101608	1	-6.69741e-05	40	65.0067	6.39674e-07
2	0	0	0	0	68.1172	-0.640585	-0.640552	-0.00107768	1	-7.04101e-05	40	67.207	6.90309e-07
2	0	0	1	0	70.3174	-0.651586	-0.651555	-0.00113369	1	-7.39497e-05	40	69.4072	7.38659e-07
2	0	0	0	0	72.5176	-0.662588	-0.662544	-0.00119878	1	-7.76103e-05	40	71.6074	7.94242e-07
2	0	0	1	0	74.7178	-0.673589	-0.673547	-0.00126133	1	-8.13965e-05	40	73.8076	8.49564e-07
2	0	0	0	0	76.918	-0.68459	-0.68456	-0.0012937	1	-8.5313e-05	40	76.0078	8.85613e-07
2	0	0	1	0	79.1182	-0.695591	-0.695562	-0.00136722	1	-8.93599e-05	40	78.208	9.50986e-07
2	0	0	0	0	81.3184	-0.706592	-0.706575	-0.00143476	1	-9.35473e-05	40	80.4082	1.01377e-06
2	0	0	1	0	83.5187	-0.717593	-0.717559	-0.00147912	1	-9.78771e-05	40	82.6085	1.06136e-06
2	0	0	1	0	85.719	-0.728594	-0.728559	-0.00152063	1	-0.000102353	40	84.8088	1.10787e-06
2	0	0	0	0	87.9192	-0.739595	-0.739565	-0.00158857	1	-0.000106969	40	87.009	1.17485e-06
2	0	0	1	0	90.1194	-0.750597	-0.750539	-0.00164177	1	-0.000111733	40	89.2092	1.23221e-06
2	0	0	0	0	92.3196	-0.761598	-0.761541	-0.00169212	1	-0.000116645	40	91.4094	1.28862e-06
2	0	0	1	0	94.5198	-0.772599	-0.772548	-0.0017782	1	-0.000121706	40	93.6096	1.37374e-06
2	0	0	0	0	96.72	-0.7836	-0.783554	-0.001905	1	-0.00012692	40	95.8098	1.49267e-06
2	0	0	1	0	98.9203	-0.794602	-0.794565	-0.00194906	1	-0.000132288	40	98.0101	1.54866e-06
2	0	0	1	0	101.121	-0.805602	-0.805552	-0.00202784	1	-0.000137807	40	100.21	1.63353e-06
2	0	0	0	0	103.321	-0.816603	-0.816568	-0.00207722	1	-0.000143491	40	102.411	1.69619e-06
2	0	0	1	0	105.521	-0.827605	-0.827565	-0.00217928	1	-0.000149362	40	104.611	1.80349e-06
2	0	0	0	0	107.721	-0.838606	-0.838593	-0.00224006	1	-0.000155399	40	106.811	1.8785e-06
2	0	0	1	0	109.921	-0.849607	-0.849571	-0.00231291	1	-0.000161611	40	109.011	1.96498e-06
2	0	0	0	0	112.122	-0.860608	-0.860568	-0.00240668	1	-0.000168018	40	111.211	2.07111e-06
2	0	0	1	0	114.322	-0.871609	-0.871573	-0.00254748	1	-0.000174626	40	113.412	2.22031e-06
2	0	0	1	0	116.522	-0.88261	-0.882562	-0.00254477	1	-0.000181431	40	115.612	2.24592e-06
2	0	0	0	0	118.722	-0.893611	-0.893582	-0.00264804	1	-0.000188455	40	117.812	2.36625e-06
2	0	0	1	0	120.923	-0.904613	-0.904596	-0.00276627	1	-0.000195678	40	120.012	2.50235e-06
2	0	0	0	0	123.123	-0.915614	-0.915568	-0.00283227	1	-0.000203094	40	122.213	2.59313e-06
2	0	0	1	0	125.323	-0.926615	-0.926584	-0.00286515	1	-0.000210703	40	124.413	2.6548e-06
2	0	0	0	0	127.523	-0.937616	-0.937588	-0.00302789	1	-0.000218513	40	126.613	2.83891e-06
2	0	0	1	0	129.723	-0.948617	-0.948593	-0.00305289	1	-0.000226483	40	128.813	2.89595e-06
2	0	0	1	0	131.924	-0.959618	-0.959573	-0.00310614	1	-0.000234625	40	131.013	2.98056e-06
2	0	0	0	0	134.124	-0.970619	-0.970605	-0.00327145	1	-0.000242957	40	133.214	3.17528e-06
2	0	0	1	0	136.324	-0.981621	-0.981587	-0.00333049	1	-0.000251479	40	135.414	3.26917e-06
2	0	0	0	0	138.524	-0.992622	-0.992608	-0.0034093	1	-0.000260168	40	137.614	3.3841e-06
2	0	0	1	0	140.725	-1.00362	-1.00359	-0.00350801	1	-0.000269075	40	139.814	3.52059e-06
2	0	0	0	0	142.925	-1.01462	-1.01459	-0.00360586	1	-0.00027818	40	142.015	3.65848e-06
2	0	0	1	0	145.125	-1.02563	-1.02558	-0.00372913	1	-0.000287505	40	144.215	3.82453e-06
2	0	0	1	0	147.325	-1.03663	-1.03659	-0.00382837	1	-0.000297057	40	146.415	3.96847e-06
2	0	0	0	0	149.526	-1.04763	-1.0476	-0.00395768	1	-0.000306848	40	148.615	4.14606e-06
2	0	0	1	0	151.726	-1.05863	-1.05859	-0.00406025	1	-0.000316889	40	150.816	4.29815e-06
2	0	0	0	0	153.926	-1.06963	-1.0696	-0.00418379	1	-0.00032718	40	153.016	4.47498e-06
2	0	0	1	0	156.126	-1.08063	-1.08059	-0.00432966	1	-0.000337738	40	155.216	4.6786e-06
2	0	0	0	0	158.326	-1.09163	-1.09162	-0.00447	1	-0.000348607	40	157.416	4.87953e-06
2	0	0	1	0	160.527	-1.10263	-1.1026	-0.00456518	1	-0.00035976	40	159.616	5.03357e-06
2	0	0	0	0	162.727	-1.11363	-1.11359	-0.00467908	1	-0.000371188	40	161.817	5.21058e-06
2	0	0	0	0	164.927	-1.12464	-1.12461	-0.00494391	1	-0.000382921	40	164.017	5.55995e-06
2	0	0	1	0	167.127	-1.13564	-1.1356	-0.00495618	1	-0.000394983	40	166.217	5.62822e-06
2	0	0	0	0	169.328	-1.14664	-1.1466	-0.00518915	1	-0.000407407	40	168.417	5.9499e-06
2	0	0	1	0	171.528	-1.15764	-1.15759	-0.00536366	1	-0.000420237	40	170.618	6.2089e-06
2	0	0	0	0	173.728	-1.16864	-1.16861	-0.00560031	1	-0.000433605	40	172.818	6.54456e-06
2	0	0	1	0	175.928	-1.17964	-1.1796	-0.00590306	1	-0.000447612	40	175.018	6.96327e-06
2	0	0	0	0	178.128	-1.19064	-1.1906	-0.00615456	1	-0.000462221	40	177.218	7.32761e-06
2	0	0	1	0	180.329	-1.20164	-1.20163	-0.00671679	1	-0.000477743	40	179.419	8.07113e-06
2	0	0	1	0	182.529	-1.21264	-1.21261	-0.00721285	1	-0.000494565	40	181.619	8.74638e-06
2	0	0	0	0	184.729	-1.22365	-1.22361	-0.00985475	1	-0.0005144	40	183.819	1.20584e-05
2	0	0	1	0	186.929	-1.23465	-1.2346	-0.0122824	1	-0.000539013	40	186.019	1.51638e-05
2	0	0	0	0	189.13	-1.24565	-1.24563	-0.0149952	1	-0.000570034	40	188.219	1.86785e-05
2	0	0	1	0	191.33	-1.25665	-1.25661	-0.0218053	1	-0.000608465	40	190.42	2.74008e-05
2	0	0	0	0	193.53	-1.26765	-1.2676	-0.0381726	1	-0.000670698	40	192.62	4.83877e-05
2	0	0	1	0	195.73	-1.27865	-1.27861	-0.0458998	1	-0.000760702	40	194.82	5.86881e-05
2	0	0	1	0	197.931	-1.28965	-1.28961	-0.0978226	1	-0.00091523	40	197.02	0.000126153
2	0	0	0	0	200.131	-1.30065	-1.30062	-0.123358	1	-0.00116873	40	199.221	0.000160442
2	0	0	1	0	202.331	-1.31165	-1.31161	-0.218928	1	-0.00152816	40	201.421	0.000287148
2	0	0	0	0	204.531	-1.32266	-1.32264	-0.201869	1	-0.00197131	40	203.621	0.000266998
2	0	0	1	0	206.731	-1.33366	-1.33362	-0.214612	1	-0.00240914	40	205.821	0.00028621
2	0	0	0	0	208.932	-1.34466	-1.34462	-0.250669	1	-0.0029213	40	208.021	0.000337055
2	0	0	0	1	210.912	-1.34546	-1.34541	-0.22753	2	-0.00342416	40	210.002	0.000306123
2	0	0	1	1	213.113	-1.33446	-1.3344	-0.196518	2	-0.00390542	40	212.202	0.000262234
2	0	0	0	1	215.313	-1.32346	-1.3234	-0.179666	2	-0.00430815	40	214.403	0.00023777
2	0	0	1	1	217.513	-1.31245	-1.31241	-0.127769	2	-0.00463433	40	216.603	0.000167685
2	0	0	0	1	219.713	-1.30145	-1.3014	-0.108418	2	-0.00489574	40	218.803	0.000141095
2	0	0	1	1	221.913	-1.29045	-1.29041	-0.0842734	2	-0.005109	40	221.003	0.000108747
2	0	0	1	1	224.114	-1.27945	-1.27941	-0.0715365	2	-0.00528323	40	223.203	9.15243e-05
2	0	0	0	1	226.314	-1.26845	-1.26841	-0.0620024	2	-0.0054324	40	225.404	7.86443e-05
2	0	0	1	1	228.514	-1.25745	-1.25741	-0.0526681	2	-0.00555844	40	227.604	6.62253e-05
2	0	0	0	1	230.714	-1.24645	-1.24642	-0.0454916	2	-0.00567031	40	229.804	5.67015e-05
2	0	0	1	1	232.915	-1.23545	-1.2354	-0.0437928	2	-0.00577139	40	232.004	5.41017e-05
2	0	0	0	1	235.115	-1.22445	-1.2244	-0.0373664	2	-0.00585967	40	234.205	4.57516e-05
2	0	0	1	1	237.315	-1.21344	-1.21342	-0.0333063	2	-0.00593678	40	236.405	4.04145e-05
2	0	0	1	1	239.515	-1.20244	-1.20242	-0.029625	2	-0.00600386	40	238.605	3.56218e-05
2	0	0	0	1	241.716	-1.19144	-1.19141	-0.0265886	2	-0.00606378	40	240.805	3.16778e-05
2	0	0	1	1	243.916	-1.18044	-1.18041	-0.0229056	2	-0.00611706	40	243.006	2.70381e-05
2	0	0	0	1	246.116	-1.16944	-1.16942	-0.0203442	2	-0.00616341	40	245.206	2.37908e-05
2	0	0	1	1	248.316	-1.15844	-1.15842	-0.0172696	2	-0.00620367	40	247.406	2.00054e-05
2	0	0	0	1	250.516	-1.14744	-1.14739	-0.014604	2	-0.00623834	40	249.606	1.67565e-05
2	0	0	1	1	252.717	-1.13644	-1.1364	-0.0120408	2	-0.00626651	40	251.806	1.36832e-05
2	0	0	0	1	254.917	-1.12544	-1.12541	-0.00940615	2	-0.00628938	40	254.007	1.05858e-05
2	0	0	0	1	257.117	-1.11443	-1.1144	-0.00767021	2	-0.00630693	40	256.207	8.54769e-06
2	0	0	1	1	259.317	-1.10343	-1.1034	-0.00605862	2	-0.00632079	40	258.407	6.68508e-06
2	0	0	0	1	261.518	-1.09243	-1.09243	-0.0046491	2	-0.00633132	40	260.607	5.07881e-06
2	0	0	1	1	263.718	-1.08143	-1.08138	-0.00326484	2	-0.00633878	40	262.808	3.53053e-06
2	0	0	0	1	265.918	-1.07043	-1.07038	-0.00214872	2	-0.00634362	40	265.008	2.29995e-06
2	0	0	1	1	268.118	-1.05943	-1.05938	-0.00114052	2	-0.00634615	40	267.208	1.20824e-06
2	0	0	0	1	270.318	-1.04843	-1.0484	-0.000302156	2	-0.00634666	40	0.2	3.16782e-07
2	1	0	1	1	272.519	-1.03743	-1.03739	0.000472915	2	-0.00634532	40	2.4004	-4.90599e-07
2	1	0	1	1	274.719	-1.02643	-1.02637	0.00115831	2	-0.00634234	40	4.6006	-1.18886e-06
2	1	0	0	1	276.919	-1.01542	-1.01539	0.00148308	2	-0.00633832	40	6.8008	-1.5059e-06
2	1	0	1	1	279.119	-1.00442	-1.00437	0.00174986	2	-0.00633369	40	9.001	-1.75751e-06
2	1	0	0	1	281.32	-0.993422	-0.993374	0.00219112	2	-0.0063283	40	11.2012	-2.1766e-06
2	1	0	1	1	283.52	-0.982421	-0.982365	0.00262825	2	-0.00632199	40	13.4014	-2.5819e-06
2	1	0	0	1	285.72	-0.971419	-0.97139	0.00312315	2	-0.0063146	40	15.6016	-3.03379e-06
2	1	0	1	1	287.92	-0.960418	-0.960365	0.00363994	2	-0.00630611	40	17.8018	-3.49567e-06
2	1	0	1	1	290.121	-0.949417	-0.949362	0.00407804	2	-0.00629667	40	20.0022	-3.87153e-06
2	1	0	0	1	292.321	-0.938416	-0.938388	0.00428532	2	-0.00628657	40	22.2024	-4.02129e-06
2	1	0	1	1	294.521	-0.927415	-0.927363	0.0046829	2	-0.00627571	40	24.4026	-4.34274e-06
2	1	0	0	1	296.721	-0.916414	-0.916377	0.00499639	2	-0.00626411	40	26.6028	-4.57857e-06
2	1	0	1	1	298.921	-0.905413	-0.905373	0.00526293	2	-0.00625178	40	28.803	-4.76491e-06
2	1	0	0	1	301.122	-0.894412	-0.894376	0.00547006	2	-0.00623898	40	31.0032	-4.89229e-06
2	1	0	1	1	303.322	-0.88341	-0.883352	0.00561407	2	-0.00622577	40	33.2034	-4.9592e-06
2	1	0	1	1	305.522	-0.872409	-0.872395	0.00560502	2	-0.00621242	40	35.4037	-4.88979e-06
2	1	0	0	1	307.722	-0.861408	-0.861366	0.00585843	2	-0.00619887	40	37.604	-5.04625e-06
2	1	0	1	1	309.923	-0.850407	-0.850372	0.00612679	2	-0.00618477	40	39.8042	-5.21005e-06
2	1	0	0	1	312.123	-0.839406	-0.839372	0.00638971	2	-0.00617002	40	42.0044	-5.36335e-06
2	1	0	1	1	314.323	-0.828405	-0.828367	0.00643416	2	-0.00615488	40	44.2046	-5.32984e-06
2	1	0	0	1	316.523	-0.817404	-0.817363	0.00669639	2	-0.00613942	40	46.4048	-5.47338e-06
2	1	0	1	1	318.723	-0.806402	-0.806333	0.00697522	2	-0.00612348	40	48.605	-5.62435e-06
2	1	0	1	1	320.924	-0.795401	-0.795367	0.00729566	2	-0.00610666	40	50.8053	-5.80272e-06
2	1	0	0	1	323.124	-0.7844	-0.784353	0.00753506	2	-0.00608921	40	53.0056	-5.91014e-06
2	1	0	1	1	325.324	-0.773399	-0.773324	0.00761653	2	-0.0060716	40	55.2058	-5.89005e-06
2	1	0	0	1	327.524	-0.762398	-0.762332	0.00747689	2	-0.00605398	40	57.406	-5.69987e-06
2	1	0	1	1	329.725	-0.751397	-0.751314	0.00731802	2	-0.00603679	40	59.6062	-5.49813e-06
2	1	0	0	1	331.925	-0.740396	-0.740358	0.00708027	2	-0.00601993	40	61.8064	-5.24194e-06
2	1	0	1	1	334.125	-0.729394	-0.729345	0.00683872	2	-0.00600378	40	64.0066	-4.98778e-06
2	1	0	1	1	336.325	-0.718393	-0.718329	0.00680064	2	-0.00598789	40	66.2069	-4.8851e-06
2	1	0	0	1	338.526	-0.707392	-0.707349	0.00643626	2	-0.00597233	40	68.4072	-4.55268e-06
2	1	0	1	1	340.726	-0.696391	-0.69636	0.00654967	2	-0.00595748	40	70.6074	-4.56092e-06
2	1	0	0	1	342.926	-0.68539	-0.685344	0.00595564	2	-0.00594309	40	72.8076	-4.08166e-06
2	1	0	1	1	345.126	-0.674389	-0.674344	0.00583258	2	-0.00592927	40	75.0078	-3.93316e-06
2	1	0	0	1	347.326	-0.663388	-0.663346	0.00563442	2	-0.00591566	40	77.208	-3.73757e-06
2	1	0	1	1	349.527	-0.652386	-0.652327	0.00546603	2	-0.00590253	40	79.4082	-3.56564e-06
2	1	0	0	1	351.727	-0.641385	-0.641331	0.00527603	2	-0.00588974	40	81.6084	-3.38369e-06
2	1	0	1	1	353.927	-0.630385	-0.630341	0.00523801	2	-0.00587718	40	83.8087	-3.30173e-06
2	1	0	1	1	356.127	-0.619383	-0.619336	0.00522666	2	-0.00586478	40	86.009	-3.23706e-06
2	1	0	0	1	358.328	-0.608382	-0.608321	0.00484396	2	-0.00585272	40	88.2092	-2.94668e-06
2	1	0	1	1	360.528	-0.597381	-0.597324	0.00478966	2	-0.00584103	40	90.4094	-2.86098e-06
2	1	0	0	1	362.728	-0.58638	-0.586321	0.00461391	2	-0.0058297	40	92.6096	-2.70523e-06
2	1	0	1	1	364.928	-0.575379	-0.575328	0.00451797	2	-0.00581868	40	94.8098	-2.59932e-06
2	1	0	0	1	367.128	-0.564377	-0.564342	0.00451711	2	-0.00580789	40	97.01	-2.54919e-06
2	1	0	1	1	369.329	-0.553376	-0.553329	0.00438384	2	-0.00579729	40	99.2103	-2.4257e-06
2	1	0	1	1	371.529	-0.542375	-0.542323	0.0043423	2	-0.00578695	40	101.411	-2.35493e-06
2	1	0	0	1	373.729	-0.531374	-0.531318	0.00417802	2	-0.00577672	40	103.611	-2.21985e-06
2	1	0	1	1	375.929	-0.520373	-0.520303	0.00400655	2	-0.0057668	40	105.811	-2.08462e-06
2	1	0	0	1	378.13	-0.509372	-0.509326	0.0039028	2	-0.00575727	40	108.011	-1.98779e-06
2	1	0	1	1	380.33	-0.498371	-0.498309	0.00373883	2	-0.00574805	40	110.211	-1.86309e-06
2	1	0	0	1	382.53	-0.487369	-0.48732	0.00371623	2	-0.00573896	40	112.412	-1.81099e-06
2	1	0	1	1	384.73	-0.476368	-0.476327	0.00364601	2	-0.00572994	40	114.612	-1.73669e-06
2	1	0	1	1	386.931	-0.465367	-0.465324	0.00357506	2	-0.00572119	40	116.812	-1.66356e-06
2	1	0	0	1	389.131	-0.454366	-0.454298	0.00348947	2	-0.00571266	40	119.012	-1.58526e-06
2	1	0	1	1	391.331	-0.443365	-0.44329	0.00335327	2	-0.00570429	40	121.213	-1.48647e-06
2	1	0	0	1	393.531	-0.432364	-0.432301	0.00334549	2	-0.00569608	40	123.413	-1.44626e-06
2	1	0	1	1	395.731	-0.421363	-0.421301	0.00336768	2	-0.00568775	40	125.613	-1.41881e-06
2	1	0	0	1	397.932	-0.410361	-0.410299	0.00332062	2	-0.00567962	40	127.813	-1.36245e-06
2	1	0	1	1	400.132	-0.39936	-0.399316	0.00320109	2	-0.0056717	40	130.013	-1.27825e-06
2	1	0	1	1	402.332	-0.388359	-0.388316	0.0031517	2	-0.00566394	40	132.214	-1.22386e-06
2	1	0	0	1	404.532	-0.377358	-0.377313	0.00321046	2	-0.00565618	40	134.414	-1.21135e-06
2	1	0	1	1	406.733	-0.366357	-0.366313	0.00303916	2	-0.00564863	40	136.614	-1.11328e-06
2	1	0	0	1	408.933	-0.355356	-0.355311	0.00304198	2	-0.00564123	40	138.814	-1.08085e-06
2	1	0	1	1	411.133	-0.344355	-0.344318	0.00299031	2	-0.00563391	40	141.015	-1.02962e-06
2	1	0	0	1	413.333	-0.333354	-0.333319	0.00297317	2	-0.00562663	40	143.215	-9.91015e-07
2	1	0	1	1	415.533	-0.322352	-0.32232	0.00289683	2	-0.00561948	40	145.415	-9.33707e-07
2	1	0	1	1	417.734	-0.311351	-0.311281	0.00292743	2	-0.00561239	40	147.615	-9.11252e-07
2	1	0	0	1	419.914	-0.30045	-0.300408	0.00285993	2	-0.00560542	40	149.796	-8.59145e-07
2	1	0	1	1	421.915	-0.309551	-0.309516	0.0022151	2	-0.00560111	40	151.796	-6.85608e-07
2	1	0	1	1	424.115	-0.320552	-0.320505	0.00187431	2	-0.00559736	40	153.996	-6.00725e-07
2	1	0	0	1	426.315	-0.331553	-0.331517	0.0016025	2	-0.00559422	40	156.197	-5.31257e-07
2	1	0	1	1	428.515	-0.342554	-0.342506	0.00142986	2	-0.00559153	40	158.397	-4.89737e-07
2	1	0	0	1	430.716	-0.353556	-0.353516	0.00128953	2	-0.0055892	40	160.597	-4.55869e-07
2	1	0	1	1	432.916	-0.364557	-0.364523	0.00118891	2	-0.00558718	40	162.797	-4.33386e-07
2	1	0	0	1	435.116	-0.375558	-0.375517	0.00111931	2	-0.00558538	40	164.998	-4.20321e-07
2	1	0	1	1	437.316	-0.386559	-0.386524	0.00106965	2	-0.00558362	40	167.198	-4.13446e-07
2	1	0	0	1	439.516	-0.39756	-0.397507	0.00100927	2	-0.00558206	40	169.398	-4.01191e-07
2	1	0	0	1	441.717	-0.408561	-0.408494	0.000875832	2	-0.00558078	40	171.598	-3.57772e-07
2	1	0	1	1	443.917	-0.419562	-0.419521	0.000799769	2	-0.00557969	40	173.799	-3.3552e-07
2	1	0	0	1	446.117	-0.430564	-0.430523	0.000749598	2	-0.00557873	40	175.999	-3.22719e-07
2	1	0	1	1	448.317	-0.441565	-0.441512	0.000679879	2	-0.00557793	40	178.199	-3.00175e-07
2	1	0	0	1	450.518	-0.452566	-0.452523	0.000624279	2	-0.0055773	40	180.399	-2.82501e-07
2	1	0	1	1	452.718	-0.463567	-0.463527	0.000563379	2	-0.00557683	40	182.599	-2.61141e-07
2	1	0	0	1	454.918	-0.474568	-0.47451	0.000509386	2	-0.00557644	40	184.8	-2.41709e-07
2	1	0	1	1	457.118	-0.485569	-0.485539	0.000480578	2	-0.0055762	40	187	-2.3334e-07
2	1	0	1	1	459.319	-0.49657	-0.496525	0.0004614	2	-0.00557605	40	189.2	-2.29097e-07
2	1	0	0	1	461.519	-0.507571	-0.507524	0.000359313	2	-0.00557601	40	0.000000000000000E+000	-1.8236e-07
2	1	0	1	1	463.719	-0.518573	-0.518535	0.000339357	2	-0.00557607	40	2.0002	-1.75969e-07
2	0	0	0	1	465.919	-0.529574	-0.529545	0.000319813	2	-0.00557622	40	4.2004	-1.69355e-07
2	1	0	1	1	468.119	-0.540575	-0.540522	0.000275007	2	-0.00557645	40	6.4006	-1.48648e-07
2	1	0	0	1	470.32	-0.551576	-0.551519	0.000236572	2	-0.00557677	40	8.6008	-1.30474e-07
2	0	0	1	1	472.52	-0.562578	-0.562546	0.000174822	2	-0.00557721	40	10.8011	-9.83453e-08
2	1	0	1	1	474.72	-0.573578	-0.573537	0.000161046	2	-0.00557778	40	13.0014	-9.2366e-08
2	0	0	0	1	476.92	-0.58458	-0.584525	0.000117485	2	-0.00557845	40	15.2016	-6.86728e-08
2	1	0	1	1	479.121	-0.595581	-0.595516	6.98194e-05	2	-0.00557923	40	17.4018	-4.15785e-08
2	1	0	0	1	481.321	-0.606582	-0.60653	3.31657e-05	2	-0.00558014	40	19.602	-2.0116e-08
2	1	0	1	1	483.521	-0.617583	-0.617544	-2.61788e-05	2	-0.00558115	40	21.8022	1.61665e-08
2	1	0	0	1	485.721	-0.628584	-0.628541	-9.1807e-05	2	-0.00558228	40	24.0024	5.77045e-08
2	1	0	1	1	487.921	-0.639585	-0.639547	-0.000108192	2	-0.00558353	40	26.2026	6.91941e-08
2	1	0	1	1	490.122	-0.650586	-0.650544	-0.000186353	2	-0.0055849	40	28.4029	1.21231e-07
2	0	0	0	1	492.322	-0.661587	-0.661552	-0.000229911	2	-0.00558636	40	30.6032	1.52098e-07
2	1	0	1	1	494.522	-0.672589	-0.672552	-0.000272402	2	-0.00558793	40	32.8034	1.83204e-07
2	1	0	0	1	496.722	-0.68359	-0.683547	-0.000328539	2	-0.00558961	40	35.0036	2.24572e-07
2	1	0	1	1	498.923	-0.694591	-0.694542	-0.000375611	2	-0.00559142	40	37.2038	2.60877e-07
2	1	0	0	1	501.123	-0.705592	-0.705531	-0.000422327	2	-0.00559342	40	39.404	2.97965e-07
2	0	0	1	1	503.323	-0.716593	-0.716526	-0.000503253	2	-0.00559555	40	41.6042	3.60594e-07
2	1	0	1	1	505.523	-0.727594	-0.727544	-0.000554286	2	-0.00559774	40	43.8045	4.03267e-07
2	0	0	0	1	507.724	-0.738595	-0.738541	-0.000595841	2	-0.00560013	40	46.0048	4.40053e-07
2	0	0	1	1	509.924	-0.749597	-0.749549	-0.000692125	2	-0.00560267	40	48.205	5.18782e-07
2	0	0	0	1	512.124	-0.760598	-0.76055	-0.00073927	2	-0.00560537	40	50.4052	5.62253e-07
2	1	0	1	1	514.324	-0.771599	-0.771525	-0.00082284	2	-0.0056082	40	52.6054	6.34841e-07
2	0	0	0	1	516.524	-0.7826	-0.782537	-0.000896282	2	-0.00561122	40	54.8056	7.01374e-07
2	0	0	1	1	518.725	-0.793601	-0.793537	-0.000970165	2	-0.00561431	40	57.0058	7.69862e-07
2	0	0	1	1	520.925	-0.804602	-0.804539	-0.0011168	2	-0.0056177	40	59.206	8.98506e-07
2	0	0	0	1	523.125	-0.815603	-0.815544	-0.00122092	2	-0.00562133	40	61.4064	9.95711e-07
2	0	0	1	1	525.325	-0.826604	-0.826551	-0.00127104	2	-0.00562518	40	63.6066	1.05058e-06
2	0	0	0	1	527.526	-0.837606	-0.837559	-0.0013601	2	-0.0056292	40	65.8068	1.13917e-06
2	1	0	1	1	529.726	-0.848607	-0.84856	-0.00148603	2	-0.00563347	40	68.007	1.26099e-06
2	0	0	0	1	531.926	-0.859608	-0.859563	-0.00156401	2	-0.00563798	40	70.2072	1.34436e-06
2	0	0	1	1	534.126	-0.870609	-0.870568	-0.0016417	2	-0.0056427	40	72.4074	1.42921e-06
2	0	0	0	1	536.326	-0.88161	-0.881565	-0.00174473	2	-0.00564762	40	74.6076	1.5381e-06
2	0	0	0	1	538.527	-0.892611	-0.892577	-0.00187236	2	-0.00565275	40	76.808	1.67122e-06
2	0	0	1	1	540.727	-0.903613	-0.903557	-0.00194134	2	-0.00565805	40	79.0082	1.75411e-06
2	0	0	0	1	542.927	-0.914614	-0.914571	-0.00203936	2	-0.00566351	40	81.2084	1.86514e-06
2	0	0	1	1	545.127	-0.925615	-0.925564	-0.00207198	2	-0.00566912	40	83.4086	1.91775e-06
2	0	0	0	1	547.328	-0.936616	-0.93658	-0.00214129	2	-0.00567487	40	85.6088	2.00549e-06
2	0	0	1	1	549.528	-0.947617	-0.947571	-0.00219895	2	-0.00568076	40	87.809	2.08366e-06
2	0	0	0	1	551.728	-0.958618	-0.958563	-0.00227969	2	-0.00568677	40	90.0092	2.18522e-06
2	0	0	1	1	553.928	-0.969619	-0.969578	-0.00227471	2	-0.0056929	40	92.2096	2.20551e-06
2	0	0	1	1	556.129	-0.98062	-0.980562	-0.00233536	2	-0.00569911	40	94.4098	2.28996e-06
2	0	0	0	1	558.329	-0.991622	-0.991574	-0.00238543	2	-0.00570544	40	96.61	2.36533e-06
2	0	0	1	1	560.529	-1.00262	-1.00259	-0.00244899	2	-0.00571191	40	98.8102	2.45532e-06
2	0	0	0	1	562.729	-1.01362	-1.0136	-0.00251956	2	-0.00571851	40	101.01	2.55383e-06
2	0	0	1	1	564.929	-1.02462	-1.02457	-0.00255256	2	-0.00572523	40	103.211	2.61528e-06
2	0	0	0	1	567.13	-1.03563	-1.03558	-0.00259616	2	-0.00573211	40	105.411	2.68853e-06
2	0	0	1	1	569.33	-1.04663	-1.04658	-0.00266839	2	-0.00573914	40	107.611	2.7927e-06
2	0	0	1	1	571.53	-1.05763	-1.05758	-0.00274403	2	-0.00574633	40	109.811	2.90202e-06
2	0	0	0	1	573.73	-1.06863	-1.06858	-0.0028781	2	-0.00575375	40	112.012	3.07547e-06
2	0	0	1	1	575.931	-1.07963	-1.07958	-0.00291617	2	-0.00576128	40	114.212	3.14825e-06
2	0	0	0	1	578.131	-1.09063	-1.0906	-0.00301615	2	-0.00576911	40	116.412	3.28941e-06
2	0	0	1	1	580.331	-1.10163	-1.1016	-0.00306082	2	-0.00577704	40	118.612	3.37178e-06
2	0	0	0	1	582.531	-1.11263	-1.11259	-0.0032299	2	-0.00578519	40	120.812	3.59356e-06
2	0	0	1	1	584.731	-1.12364	-1.1236	-0.00329973	2	-0.00579361	40	123.013	3.70758e-06
2	0	0	1	1	586.932	-1.13464	-1.13456	-0.00349612	2	-0.00580233	40	125.213	3.96657e-06
2	0	0	0	1	589.132	-1.14564	-1.14558	-0.00384478	2	-0.00581186	40	127.413	4.40451e-06
2	0	0	1	1	591.332	-1.15664	-1.15659	-0.00417573	2	-0.00582293	40	129.613	4.8296e-06
2	0	0	0	1	593.532	-1.16764	-1.16759	-0.00405561	2	-0.005833	40	131.814	4.73531e-06
2	0	0	1	1	595.733	-1.17864	-1.17859	-0.00461675	2	-0.00584414	40	134.014	5.44127e-06
2	0	0	0	1	597.933	-1.18964	-1.18958	-0.0048905	2	-0.00585586	40	136.214	5.81764e-06
2	0	0	1	1	600.133	-1.20064	-1.20058	-0.00521428	2	-0.00586819	40	138.414	6.26019e-06
2	0	0	1	1	602.333	-1.21164	-1.21158	-0.00551596	2	-0.00588149	40	140.614	6.68304e-06
2	0	0	0	1	604.534	-1.22265	-1.22261	-0.00606821	2	-0.00589558	40	142.815	7.41904e-06
2	0	0	1	1	606.734	-1.23365	-1.23358	-0.00617448	2	-0.00591003	40	145.015	7.61674e-06
2	0	0	0	1	608.934	-1.24465	-1.2446	-0.0066708	2	-0.00592545	40	147.215	8.30246e-06
2	0	0	1	1	611.134	-1.25565	-1.25559	-0.00829404	2	-0.00594211	40	149.415	1.04139e-05
2	0	0	0	1	613.334	-1.26665	-1.26661	-0.0124592	2	-0.00596534	40	151.616	1.57809e-05
2	0	0	1	1	615.535	-1.27765	-1.27759	-0.0122984	2	-0.00599342	40	153.816	1.57123e-05
2	0	0	0	1	617.735	-1.28865	-1.28858	-0.0149267	2	-0.00602477	40	156.016	1.92343e-05
2	0	0	0	1	619.935	-1.29965	-1.2996	-0.0189212	2	-0.00606277	40	158.216	2.45899e-05
2	0	0	1	1	622.135	-1.31065	-1.3106	-0.022555	2	-0.00610961	40	160.417	2.95606e-05
2	0	0	0	1	624.336	-1.32166	-1.32162	-0.0317752	2	-0.0061659	40	162.617	4.19948e-05
2	0	0	1	1	626.536	-1.33266	-1.33259	-0.0391029	2	-0.00624158	40	164.817	5.21083e-05
2	0	0	0	1	628.736	-1.34366	-1.3436	-0.0422263	2	-0.00633487	40	167.017	5.67354e-05
2	0	0	0	0	630.717	-1.34646	-1.3464	-0.0462091	3	-0.00643203	40	168.998	6.2216e-05
2	0	0	1	0	632.917	-1.33546	-1.33539	-0.0384728	3	-0.00652209	40	171.198	5.13763e-05
2	0	0	0	0	635.117	-1.32446	-1.32441	-0.0303072	3	-0.00660121	40	173.398	4.01391e-05
2	0	0	1	0	637.317	-1.31345	-1.31338	-0.0307126	3	-0.00666369	40	175.599	4.03374e-05
2	0	0	0	0	639.518	-1.30245	-1.3024	-0.0277431	3	-0.00672775	40	177.799	3.61324e-05
2	0	0	1	0	641.718	-1.29145	-1.29138	-0.0222244	3	-0.00678067	40	179.999	2.87002e-05
2	0	0	0	0	643.918	-1.28045	-1.2804	-0.0244748	3	-0.00682816	40	182.199	3.13375e-05
2	0	0	1	0	646.118	-1.26945	-1.26937	-0.0164424	3	-0.00686798	40	184.4	2.08716e-05
2	0	0	1	0	648.319	-1.25845	-1.25838	-0.0128186	3	-0.00689832	40	186.6	1.61307e-05
2	0	0	0	0	650.519	-1.24745	-1.24738	-0.0121536	3	-0.006926	40	188.8	1.51601e-05
2	0	0	1	0	652.719	-1.23645	-1.23638	-0.0107691	3	-0.00694966	40	191	1.33147e-05
2	0	0	0	0	654.919	-1.22545	-1.22537	-0.00941219	3	-0.00697101	40	193.2	1.15334e-05
2	0	0	1	0	657.119	-1.21444	-1.21437	-0.00995443	3	-0.00699123	40	195.401	1.20884e-05
2	0	0	0	0	659.32	-1.20344	-1.2034	-0.00950421	3	-0.00701135	40	197.601	1.14373e-05
2	0	0	1	0	661.52	-1.19244	-1.1924	-0.00866936	3	-0.00703008	40	199.801	1.03373e-05
2	0	0	1	0	663.72	-1.18144	-1.18141	-0.00805094	3	-0.00705094	40	202.001	9.51143e-06
2	0	0	0	0	665.92	-1.17044	-1.1704	-0.00838243	3	-0.00706865	40	204.202	9.81081e-06
2	0	0	1	0	668.121	-1.15944	-1.15939	-0.00730342	3	-0.00708515	40	206.402	8.46749e-06
2	0	0	0	0	670.321	-1.14844	-1.14839	-0.00477993	3	-0.00709702	40	208.602	5.48921e-06
2	0	0	1	0	672.521	-1.13744	-1.13739	-0.00410571	3	-0.0071059	40	210.802	4.6698e-06
2	0	0	0	0	674.721	-1.12644	-1.12642	-0.0034454	3	-0.00711331	40	213.002	3.88097e-06
2	0	0	1	0	676.921	-1.11543	-1.1154	-0.00271779	3	-0.00711909	40	215.203	3.03141e-06
2	0	0	1	0	679.122	-1.10443	-1.10439	-0.00237248	3	-0.00712332	40	217.403	2.62015e-06
2	0	0	0	0	681.322	-1.09343	-1.09341	-0.00173682	3	-0.00712672	40	219.603	1.89907e-06
2	0	0	1	0	683.522	-1.08243	-1.0824	-0.00119363	3	-0.00712892	40	221.803	1.29199e-06
2	0	0	0	0	685.722	-1.07143	-1.0714	-0.000895636	3	-0.00713007	40	224.004	9.59584e-07
2	1	0	1	0	687.923	-1.06043	-1.0604	-0.000355018	3	-0.00713039	40	0.2	3.7646e-07
2	0	0	0	0	690.123	-1.04943	-1.04939	-1.57001e-05	3	-0.00712985	40	2.4002	1.64755e-08
2	1	0	1	0	692.323	-1.03843	-1.03841	0.000277612	3	-0.00712861	40	4.6004	-2.88276e-07
2	1	0	1	0	694.523	-1.02743	-1.02741	0.000531222	3	-0.00712672	40	6.8007	-5.45785e-07
2	1	0	0	0	696.724	-1.01642	-1.01639	0.000643507	3	-0.00712446	40	9.001	-6.54056e-07
2	1	0	1	0	698.924	-1.00542	-1.00539	0.000754699	3	-0.00712194	40	11.2012	-7.58769e-07
2	0	0	0	0	701.124	-0.994422	-0.994394	0.000910848	3	-0.00711911	40	13.4014	-9.05742e-07
2	1	0	1	0	703.324	-0.983421	-0.983384	0.00107068	3	-0.00711598	40	15.6016	-1.05289e-06
2	1	0	0	0	705.524	-0.97242	-0.972382	0.00127449	3	-0.00711241	40	17.8018	-1.23929e-06
2	1	0	1	0	707.725	-0.961418	-0.961374	0.00159771	3	-0.00710819	40	20.002	-1.536e-06
2	1	0	0	0	709.925	-0.950417	-0.950393	0.00163611	3	-0.00710362	40	22.2022	-1.55495e-06
2	1	0	0	0	712.125	-0.939416	-0.939394	0.0016783	3	-0.00709893	40	24.4026	-1.57658e-06
2	1	0	1	0	714.325	-0.928415	-0.928394	0.00180544	3	-0.00709412	40	26.6028	-1.67616e-06
2	1	0	0	0	716.526	-0.917414	-0.917366	0.001887	3	-0.0070891	40	28.803	-1.73107e-06
2	1	0	1	0	718.726	-0.906413	-0.906375	0.00195905	3	-0.00708382	40	31.0032	-1.77564e-06
2	1	0	0	0	720.926	-0.895412	-0.895371	0.00197328	3	-0.00707844	40	33.2034	-1.76681e-06
2	1	0	1	0	723.126	-0.884411	-0.884384	0.00198621	3	-0.00707306	40	35.4036	-1.75657e-06
2	1	0	0	0	725.326	-0.873409	-0.873382	0.00194812	3	-0.00706775	40	37.6038	-1.70145e-06
2	1	0	1	0	727.527	-0.862409	-0.862385	0.0019702	3	-0.00706242	40	39.8041	-1.69907e-06
2	1	0	1	0	729.727	-0.851407	-0.851376	0.00204168	3	-0.007057	40	42.0044	-1.73824e-06
2	1	0	0	0	731.927	-0.840406	-0.840395	0.00208731	3	-0.00705141	40	44.2046	-1.75417e-06
2	1	0	1	0	734.127	-0.829405	-0.829387	0.0021593	3	-0.0070458	40	46.4048	-1.7909e-06
2	1	0	0	0	736.328	-0.818404	-0.818383	0.00227822	3	-0.00703991	40	48.605	-1.86446e-06
2	1	0	1	0	738.528	-0.807402	-0.80738	0.00240763	3	-0.00703374	40	50.8052	-1.94387e-06
2	1	0	0	0	740.728	-0.796401	-0.796346	0.00264255	3	-0.00702724	40	53.0054	-2.10438e-06
2	1	0	1	0	742.928	-0.785401	-0.785348	0.00269154	3	-0.00702026	40	55.2057	-2.11379e-06
2	1	0	1	0	745.129	-0.774399	-0.774369	0.00282424	3	-0.00701306	40	57.406	-2.18701e-06
2	1	0	0	0	747.329	-0.763398	-0.763353	0.00284867	3	-0.00700583	40	59.6062	-2.17454e-06
2	1	0	1	0	749.529	-0.752397	-0.752349	0.0027972	3	-0.00699871	40	61.8064	-2.10447e-06
2	1	0	0	0	751.729	-0.741396	-0.741363	0.00270878	3	-0.00699172	40	64.0066	-2.00819e-06
2	1	0	1	0	753.929	-0.730395	-0.730342	0.00265352	3	-0.00698486	40	66.2068	-1.93798e-06
2	1	0	0	0	756.13	-0.719393	-0.719342	0.00258152	3	-0.00697809	40	68.407	-1.857e-06
2	1	0	1	0	758.33	-0.708392	-0.708343	0.00261325	3	-0.0069714	40	70.6073	-1.85108e-06
2	1	0	1	0	760.53	-0.697391	-0.697363	0.002524	3	-0.00696475	40	72.8076	-1.76014e-06
2	1	0	0	0	762.73	-0.68639	-0.686354	0.00244948	3	-0.00695838	40	75.0078	-1.68121e-06
2	1	0	1	0	764.931	-0.675389	-0.675334	0.00236971	3	-0.00695204	40	77.208	-1.60035e-06
2	1	0	0	0	767.131	-0.664388	-0.664344	0.00230023	3	-0.00694592	40	79.4082	-1.52815e-06
2	1	0	1	0	769.331	-0.653387	-0.653351	0.00225469	3	-0.00694	40	81.6084	-1.4731e-06
2	1	0	0	0	771.531	-0.642385	-0.642359	0.00220119	3	-0.00693418	40	83.8086	-1.41395e-06
2	1	0	1	0	773.731	-0.631384	-0.63135	0.00222248	3	-0.00692841	40	86.0088	-1.40317e-06
2	1	0	1	0	775.932	-0.620383	-0.620335	0.00221166	3	-0.00692267	40	88.2092	-1.37197e-06
2	1	0	0	0	778.132	-0.609382	-0.609316	0.00215676	3	-0.00691702	40	90.4094	-1.31415e-06
2	1	0	1	0	780.332	-0.598381	-0.598328	0.00215307	3	-0.00691144	40	92.6096	-1.28824e-06
2	1	0	0	0	782.532	-0.58738	-0.587346	0.0021662	3	-0.00690592	40	94.8098	-1.27231e-06
2	1	0	1	0	784.733	-0.576379	-0.576333	0.00210435	3	-0.0069004	40	97.01	-1.21281e-06
2	1	0	0	0	786.933	-0.565378	-0.565337	0.00207966	3	-0.00689497	40	99.2102	-1.17571e-06
2	1	0	1	0	789.133	-0.554376	-0.554341	0.00205436	3	-0.00688955	40	101.41	-1.13882e-06
2	1	0	1	0	791.333	-0.543375	-0.543341	0.00204696	3	-0.00688414	40	103.611	-1.11219e-06
2	1	0	0	0	793.534	-0.532374	-0.532328	0.00209064	3	-0.00687876	40	105.811	-1.11291e-06
2	1	0	1	0	795.734	-0.521373	-0.521308	0.00200732	3	-0.00687336	40	108.011	-1.04643e-06
2	1	0	0	0	797.934	-0.510372	-0.51033	0.00202534	3	-0.00686808	40	110.211	-1.03359e-06
2	1	0	1	0	800.134	-0.499371	-0.499325	0.00199217	3	-0.00686286	40	112.412	-9.94742e-07
2	1	0	0	0	802.334	-0.48837	-0.488321	0.00197113	3	-0.00685773	40	114.612	-9.62544e-07
2	1	0	1	0	804.535	-0.477368	-0.47733	0.00191779	3	-0.00685258	40	116.812	-9.1542e-07
2	1	0	1	0	806.735	-0.466367	-0.46634	0.00191361	3	-0.00684755	40	119.012	-8.92395e-07
2	1	0	0	0	808.935	-0.455366	-0.455323	0.00186543	3	-0.00684252	40	121.213	-8.49371e-07
2	1	0	1	0	811.135	-0.444365	-0.444317	0.00188828	3	-0.00683753	40	123.413	-8.38995e-07
2	1	0	0	0	813.336	-0.433364	-0.433315	0.00188878	3	-0.00683254	40	125.613	-8.18437e-07
2	1	0	1	0	815.536	-0.422363	-0.422327	0.00188749	3	-0.00682763	40	127.813	-7.97136e-07
2	1	0	0	0	817.736	-0.411362	-0.411324	0.0018574	3	-0.00682273	40	130.013	-7.63992e-07
2	1	0	1	0	819.936	-0.40036	-0.400309	0.00183573	3	-0.00681789	40	132.214	-7.34858e-07
2	1	0	0	0	822.136	-0.389359	-0.389308	0.00182317	3	-0.00681308	40	134.414	-7.09773e-07
2	1	0	0	0	824.337	-0.378358	-0.378319	0.00186435	3	-0.00680828	40	136.614	-7.05319e-07
2	1	0	1	0	826.537	-0.367357	-0.367309	0.00184965	3	-0.00680348	40	138.814	-6.79391e-07
2	1	0	0	0	828.737	-0.356356	-0.35633	0.001901	3	-0.00679864	40	141.015	-6.77385e-07
2	1	0	1	0	830.937	-0.345355	-0.345319	0.00188411	3	-0.00679379	40	143.215	-6.5062e-07
2	1	0	0	0	833.138	-0.334354	-0.334312	0.00191196	3	-0.00678886	40	145.415	-6.39189e-07
2	1	0	1	0	835.338	-0.323352	-0.323317	0.00199897	3	-0.0067838	40	147.615	-6.46299e-07
2	1	0	0	0	837.538	-0.312351	-0.312287	0.0020136	3	-0.00677871	40	149.815	-6.2882e-07
2	1	0	1	0	839.738	-0.30135	-0.301306	0.00200152	3	-0.00677362	40	152.016	-6.03069e-07
2	1	0	1	0	841.719	-0.308551	-0.308502	0.00140576	3	-0.0067708	40	153.996	-4.3368e-07
2	1	0	0	0	843.919	-0.319552	-0.319506	0.00107153	3	-0.0067688	40	156.197	-3.42359e-07
2	1	0	1	0	846.119	-0.330553	-0.33051	0.000923656	3	-0.00676731	40	158.397	-3.05278e-07
2	1	0	1	0	848.32	-0.341554	-0.341516	0.00077794	3	-0.00676616	40	160.597	-2.65679e-07
2	0	0	0	0	850.52	-0.352556	-0.352506	0.000671134	3	-0.00676531	40	162.797	-2.36579e-07
2	1	0	1	0	852.72	-0.363557	-0.363497	0.000578455	3	-0.00676467	40	164.998	-2.10267e-07
2	1	0	0	0	854.92	-0.374558	-0.374507	0.000508251	3	-0.00676421	40	167.198	-1.90344e-07
2	1	0	1	0	857.121	-0.385559	-0.385501	0.000420859	3	-0.00676391	40	169.398	-1.62242e-07
2	1	0	0	0	859.321	-0.39656	-0.396498	0.000363387	3	-0.00676377	40	171.598	-1.44082e-07
2	1	0	1	0	861.521	-0.407562	-0.407502	0.000317411	3	-0.00676377	40	1.0001	-1.29346e-07
2	1	0	1	0	863.721	-0.418562	-0.418485	0.000246626	3	-0.00676389	40	3.2004	-1.0321e-07
2	1	0	0	0	865.922	-0.429563	-0.429501	0.000188079	3	-0.0067641	40	5.4006	-8.07803e-08
2	1	0	1	0	868.122	-0.440565	-0.440505	0.000178524	3	-0.00676446	40	7.6008	-7.86407e-08
2	1	0	0	0	870.322	-0.451566	-0.451502	0.0001527	3	-0.00676492	40	9.801	-6.89443e-08
2	0	0	1	0	872.522	-0.462567	-0.462534	6.74879e-05	3	-0.00676546	40	12.0012	-3.12155e-08
2	1	0	0	0	874.722	-0.473568	-0.473533	5.28663e-05	3	-0.00676608	40	14.2014	-2.50339e-08
2	0	0	1	0	876.923	-0.484569	-0.484514	-1.4387e-05	3	-0.0067668	40	16.4016	6.97071e-09
2	0	0	1	0	879.123	-0.49557	-0.495519	-4.36129e-05	3	-0.00676761	40	18.602	2.1611e-08
2	0	0	0	0	881.323	-0.506571	-0.506518	-8.6221e-05	3	-0.0067685	40	20.8022	4.36724e-08
2	0	0	1	0	883.523	-0.517573	-0.517513	-0.000118376	3	-0.00676948	40	23.0024	6.12613e-08
2	0	0	0	0	885.724	-0.528574	-0.528522	-0.000154545	3	-0.00677055	40	25.2026	8.16803e-08
2	0	0	1	0	887.924	-0.539575	-0.539537	-0.000151	3	-0.00677171	40	27.4028	8.147e-08
2	1	0	0	0	890.124	-0.550576	-0.550511	-0.000187259	3	-0.00677295	40	29.603	1.03088e-07
2	0	0	1	0	892.324	-0.561577	-0.561513	-0.000222145	3	-0.00677427	40	31.8032	1.24737e-07
2	0	0	1	0	894.524	-0.572578	-0.572522	-0.000270136	3	-0.00677568	40	34.0035	1.54659e-07
2	0	0	0	0	896.725	-0.583579	-0.583518	-0.000289381	3	-0.00677716	40	36.2038	1.68859e-07
2	0	0	1	0	898.925	-0.59458	-0.59452	-0.000310022	3	-0.00677872	40	38.404	1.84314e-07
2	0	0	0	0	901.125	-0.605582	-0.605532	-0.000297823	3	-0.00678033	40	40.6042	1.80341e-07
2	0	0	1	0	903.325	-0.616583	-0.616539	-0.000336795	3	-0.006782	40	42.8044	2.07647e-07
2	0	0	0	0	905.526	-0.627584	-0.627529	-0.000370142	3	-0.00678378	40	45.0046	2.32275e-07
2	0	0	1	0	907.726	-0.638585	-0.638548	-0.000426982	3	-0.00678563	40	47.2048	2.72648e-07
2	0	0	1	0	909.926	-0.649586	-0.649528	-0.000460747	3	-0.00678757	40	49.405	2.99268e-07
2	0	0	0	0	912.126	-0.660587	-0.660533	-0.000544787	3	-0.00678961	40	51.6054	3.59849e-07
2	0	0	1	0	914.327	-0.671588	-0.671536	-0.000590662	3	-0.00679178	40	53.8056	3.96651e-07
2	0	0	0	0	916.527	-0.68259	-0.682543	-0.000609899	3	-0.00679405	40	56.0058	4.16282e-07
2	1	0	1	0	918.727	-0.693591	-0.693537	-0.000698574	3	-0.00679645	40	58.206	4.84486e-07
2	1	0	0	0	920.927	-0.704592	-0.704546	-0.00073274	3	-0.006799	40	60.4062	5.16249e-07
2	1	0	1	0	923.127	-0.715593	-0.715551	-0.000761428	3	-0.00680166	40	62.6064	5.44841e-07
2	1	0	0	0	925.328	-0.726594	-0.726526	-0.000822714	3	-0.00680443	40	64.8066	5.97723e-07
2	1	0	1	0	927.528	-0.737595	-0.737538	-0.000849802	3	-0.0068073	40	67.0069	6.26761e-07
2	0	0	1	0	929.728	-0.748596	-0.748548	-0.000908606	3	-0.00681026	40	69.2072	6.80135e-07
2	0	0	0	0	931.928	-0.759598	-0.759536	-0.000959106	3	-0.00681335	40	71.4074	7.28476e-07
2	0	0	1	0	934.129	-0.770599	-0.77053	-0.00103753	3	-0.00681658	40	73.6076	7.99449e-07
2	1	0	0	0	936.329	-0.7816	-0.781544	-0.00103237	3	-0.0068199	40	75.8078	8.06843e-07
2	0	0	1	0	938.529	-0.792601	-0.79255	-0.00112217	3	-0.00682337	40	78.008	8.89373e-07
2	0	0	0	0	940.729	-0.803602	-0.803565	-0.00116334	3	-0.00682699	40	80.2082	9.34819e-07
2	0	0	1	0	942.929	-0.814603	-0.814552	-0.00125123	3	-0.00683075	40	82.4085	1.01919e-06
2	0	0	1	0	945.13	-0.825604	-0.825566	-0.00131578	3	-0.00683467	40	84.6088	1.08626e-06
2	0	0	0	0	947.33	-0.836606	-0.836579	-0.00138069	3	-0.00683874	40	86.809	1.15506e-06
2	0	0	1	0	949.53	-0.847607	-0.847575	-0.00147857	3	-0.00684302	40	89.0092	1.2532e-06
2	0	0	0	0	951.73	-0.858608	-0.858579	-0.00157405	3	-0.00684746	40	91.2094	1.35145e-06
2	0	0	1	0	953.931	-0.869609	-0.869574	-0.00164505	3	-0.00685208	40	93.4096	1.43049e-06
2	0	0	0	0	956.131	-0.88061	-0.880552	-0.00172635	3	-0.00685686	40	95.6098	1.52015e-06
2	0	0	1	0	958.331	-0.891611	-0.891591	-0.0018064	3	-0.00686178	40	97.8101	1.61057e-06
2	0	0	1	0	960.531	-0.902612	-0.902589	-0.00186544	3	-0.00686686	40	100.01	1.68372e-06
2	0	0	0	0	962.732	-0.913613	-0.913591	-0.00190288	3	-0.00687208	40	102.211	1.73845e-06
2	0	0	1	0	964.932	-0.924615	-0.924587	-0.00194239	3	-0.0068774	40	104.411	1.79591e-06
2	0	0	0	0	967.132	-0.935616	-0.935608	-0.00200003	3	-0.00688283	40	106.611	1.87124e-06
2	0	0	1	0	969.332	-0.946617	-0.946569	-0.00204845	3	-0.00688837	40	108.811	1.939e-06
2	0	0	0	0	971.532	-0.957618	-0.957587	-0.00213108	3	-0.00689399	40	111.011	2.04069e-06
2	0	0	1	0	973.733	-0.968619	-0.968594	-0.00216502	3	-0.00689972	40	113.212	2.09702e-06
2	0	0	1	0	975.933	-0.97962	-0.979603	-0.00217095	3	-0.00690553	40	115.412	2.12667e-06
2	0	0	0	0	978.133	-0.990621	-0.990607	-0.00225529	3	-0.00691144	40	117.612	2.2341e-06
2	0	0	1	0	980.333	-1.00162	-1.00158	-0.00226719	3	-0.0069175	40	119.812	2.27077e-06
2	0	0	0	0	982.534	-1.01262	-1.01259	-0.00231862	3	-0.00692365	40	122.013	2.3478e-06
2	0	0	1	0	984.734	-1.02362	-1.02358	-0.00236383	3	-0.00692991	40	124.213	2.41956e-06
2	0	0	0	0	986.934	-1.03463	-1.03459	-0.00246843	3	-0.0069363	40	126.413	2.55381e-06
2	0	0	1	0	989.134	-1.04563	-1.04559	-0.00253391	3	-0.00694285	40	128.613	2.64942e-06
2	0	0	1	0	991.334	-1.05663	-1.05659	-0.00261099	3	-0.00694954	40	130.813	2.75876e-06
2	0	0	0	0	993.535	-1.06763	-1.06761	-0.00267158	3	-0.00695638	40	133.014	2.85221e-06
2	0	0	1	0	995.735	-1.07863	-1.07859	-0.00279516	3	-0.00696347	40	135.214	3.01482e-06
2	0	0	0	0	997.935	-1.08963	-1.08958	-0.00312382	3	-0.00697111	40	137.414	3.40367e-06
2	0	0	1	0	1000.14	-1.10063	-1.10057	-0.00290644	3	-0.00697854	40	139.614	3.19875e-06
2	0	0	0	0	1002.34	-1.11163	-1.11159	-0.00297454	3	-0.00698608	40	141.815	3.30646e-06
2	0	0	1	0	1004.54	-1.12264	-1.1226	-0.00303817	3	-0.00699383	40	144.015	3.41065e-06
2	0	0	1	0	1006.74	-1.13364	-1.1336	-0.00321307	3	-0.0070018	40	146.215	3.64235e-06
2	0	0	1	0	1008.94	-1.14464	-1.1446	-0.00331848	3	-0.00701007	40	148.415	3.79835e-06
2	0	0	1	0	1011.14	-1.15564	-1.15557	-0.00349573	3	-0.00701865	40	150.616	4.03957e-06
2	0	0	0	0	1013.34	-1.16664	-1.16659	-0.00364941	3	-0.00702764	40	152.816	4.25735e-06
2	0	0	1	0	1015.54	-1.17764	-1.17758	-0.00386309	3	-0.00703702	40	155.016	4.5491e-06
2	0	0	0	0	1017.74	-1.18864	-1.1886	-0.00408688	3	-0.00704694	40	157.216	4.85767e-06
2	0	0	1	0	1019.94	-1.19964	-1.19959	-0.00429261	3	-0.0070573	40	159.416	5.14939e-06
2	0	0	0	0	1022.14	-1.21064	-1.21057	-0.00457422	3	-0.00706815	40	161.617	5.53743e-06
2	0	0	1	0	1024.34	-1.22165	-1.22158	-0.00490153	3	-0.00707967	40	163.817	5.98763e-06
2	0	0	1	0	1026.54	-1.23265	-1.23259	-0.00548736	3	-0.0070921	40	166.017	6.76366e-06
2	0	0	0	0	1028.74	-1.24365	-1.24359	-0.00564304	3	-0.00710551	40	168.217	7.01763e-06
2	0	0	1	0	1030.94	-1.25465	-1.25458	-0.00693192	3	-0.00712049	40	170.418	8.69667e-06
2	0	0	0	0	1033.14	-1.26565	-1.26558	-0.00694674	3	-0.00713892	40	172.618	8.79164e-06
2	0	0	1	0	1035.34	-1.27665	-1.27659	-0.00756703	3	-0.00715603	40	174.818	9.66003e-06
2	0	0	0	0	1037.54	-1.28765	-1.28758	-0.00846837	3	-0.0071748	40	177.018	1.09037e-05
2	0	0	1	0	1039.74	-1.29865	-1.29859	-0.00947729	3	-0.00719619	40	179.218	1.23071e-05
2	0	0	1	0	1041.94	-1.30965	-1.30958	-0.0107847	3	-0.00721986	40	181.419	1.41234e-05
2	0	0	0	0	1044.14	-1.32066	-1.3206	-0.0131816	3	-0.0072469	40	183.619	1.74076e-05
2	0	0	1	0	1046.34	-1.33166	-1.33159	-0.0174001	3	-0.00728195	40	185.819	2.31699e-05
2	0	0	0	0	1048.54	-1.34266	-1.34258	-0.0194312	3	-0.00732182	40	188.019	2.6088e-05
2	0	0	1	1	1050.52	-1.34746	-1.34739	-0.0238214	4	-0.00736462	40	190	3.20967e-05
2	0	0	1	1	1052.72	-1.33646	-1.33639	-0.0183003	4	-0.00740972	40	192.2	2.44563e-05
2	0	0	0	1	1054.92	-1.32546	-1.32541	-0.0154607	4	-0.00744765	40	194.401	2.04918e-05
2	0	0	1	1	1057.12	-1.31445	-1.31438	-0.0139886	4	-0.00748076	40	196.601	1.83863e-05
2	0	0	0	1	1059.32	-1.30345	-1.30338	-0.0123715	4	-0.00750646	40	198.801	1.61248e-05
2	0	0	1	1	1061.52	-1.29245	-1.29238	-0.0114693	4	-0.00753202	40	201.001	1.48227e-05
2	0	0	0	1	1063.72	-1.28145	-1.28139	-0.00944604	4	-0.00755371	40	203.201	1.21041e-05
2	0	0	1	1	1065.92	-1.27045	-1.27038	-0.0132243	4	-0.00757686	40	205.402	1.67999e-05
2	0	0	1	1	1068.12	-1.25945	-1.25939	-0.0116856	4	-0.00760352	40	207.602	1.47167e-05
2	0	0	0	1	1070.32	-1.24845	-1.24838	-0.00873691	4	-0.0076281	40	209.802	1.0907e-05
2	0	0	1	1	1072.52	-1.23745	-1.23737	-0.00887251	4	-0.00764738	40	212.002	1.09786e-05
2	0	0	0	1	1074.72	-1.22645	-1.22638	-0.00782301	4	-0.00766445	40	214.203	9.59402e-06
2	0	0	1	1	1076.92	-1.21544	-1.21538	-0.00711422	4	-0.00767963	40	216.403	8.6465e-06
2	0	0	0	1	1079.12	-1.20444	-1.20439	-0.00648608	4	-0.00769323	40	218.603	7.81178e-06
2	0	0	1	1	1081.32	-1.19344	-1.19339	-0.00583075	4	-0.00770566	40	220.803	6.95833e-06
2	0	0	1	1	1083.52	-1.18244	-1.18238	-0.00512138	4	-0.00771661	40	223.004	6.05544e-06
2	0	0	0	1	1085.72	-1.17144	-1.17139	-0.00454618	4	-0.00772623	40	225.204	5.32536e-06
2	0	0	1	1	1087.92	-1.16044	-1.16039	-0.00390583	4	-0.00773438	40	227.404	4.53228e-06
2	0	0	0	1	1090.13	-1.14944	-1.14941	-0.00324841	4	-0.00774117	40	229.604	3.73376e-06
2	0	0	1	1	1092.33	-1.13844	-1.13838	-0.00272436	4	-0.00774656	40	231.804	3.10136e-06
2	0	0	0	1	1094.53	-1.12744	-1.12739	-0.00217273	4	-0.00775094	40	234.005	2.44951e-06
2	0	0	1	1	1096.73	-1.11643	-1.11639	-0.00177415	4	-0.00775429	40	236.205	1.98064e-06
2	0	0	1	1	1098.93	-1.10543	-1.10538	-0.0013147	4	-0.00775662	40	238.405	1.45324e-06
2	0	0	0	1	1101.13	-1.09443	-1.09439	-0.000987418	4	-0.00775809	40	240.605	1.08062e-06
2	0	0	1	1	1103.33	-1.08343	-1.08338	-0.000629374	4	-0.00775882	40	242.806	6.81854e-07
2	0	0	0	1	1105.53	-1.07243	-1.07239	-0.000360768	4	-0.00775889	40	0.6	3.86883e-07
2	1	0	1	1	1107.73	-1.06143	-1.0614	-0.0001337	4	-0.00775841	40	2.8002	1.41909e-07
2	0	0	0	1	1109.93	-1.05043	-1.0504	4.11439e-05	4	-0.00775746	40	5.0004	-4.32175e-08
2	0	0	1	1	1112.13	-1.03943	-1.0394	0.0002427	4	-0.00775612	40	7.2006	-2.52262e-07
2	1	0	0	1	1114.33	-1.02843	-1.0284	0.000352609	4	-0.00775443	40	9.4008	-3.62622e-07
2	1	0	0	1	1116.53	-1.01742	-1.01737	0.000527171	4	-0.00775245	40	11.6012	-5.3633e-07
2	1	0	1	1	1118.73	-1.00642	-1.00637	0.000631564	4	-0.00775022	40	13.8014	-6.35584e-07
2	1	0	0	1	1120.93	-0.995422	-0.995364	0.00076266	4	-0.00774776	40	16.0016	-7.59124e-07
2	1	0	1	1	1123.13	-0.984421	-0.984397	0.000892101	4	-0.00774501	40	18.2018	-8.78181e-07
2	1	0	0	1	1125.33	-0.97342	-0.973384	0.00108926	4	-0.0077419	40	20.402	-1.06027e-06
2	1	0	1	1	1127.53	-0.962418	-0.962374	0.00127379	4	-0.00773831	40	22.6022	-1.22586e-06
2	1	0	0	1	1129.73	-0.951417	-0.951377	0.00134413	4	-0.00773447	40	24.8024	-1.27878e-06
2	1	0	1	1	1131.93	-0.940416	-0.940371	0.00135565	4	-0.00773062	40	27.0027	-1.27482e-06
2	1	0	1	1	1134.13	-0.929415	-0.929398	0.00136415	4	-0.00772672	40	29.203	-1.26784e-06
2	1	0	0	1	1136.33	-0.918414	-0.91836	0.00138161	4	-0.00772268	40	31.4032	-1.26882e-06
2	1	0	1	1	1138.53	-0.907413	-0.907384	0.00147012	4	-0.00771856	40	33.6034	-1.33397e-06
2	1	0	0	1	1140.73	-0.896412	-0.896391	0.00144359	4	-0.00771443	40	35.8036	-1.29402e-06
2	1	0	1	1	1142.93	-0.885411	-0.885397	0.00144428	4	-0.00771033	40	38.0038	-1.27876e-06
2	1	0	0	1	1145.13	-0.874409	-0.874377	0.0014674	4	-0.00770623	40	40.204	-1.28306e-06
2	1	0	1	1	1147.33	-0.863408	-0.863356	0.00146506	4	-0.00770216	40	42.4043	-1.26487e-06
2	1	0	1	1	1149.53	-0.852407	-0.852372	0.00151571	4	-0.00769804	40	44.6046	-1.29195e-06
2	1	0	0	1	1151.73	-0.841406	-0.841367	0.00152462	4	-0.0076938	40	46.8048	-1.28277e-06
2	1	0	1	1	1153.93	-0.830405	-0.83037	0.00154587	4	-0.00768956	40	49.005	-1.28365e-06
2	1	0	0	1	1156.13	-0.819404	-0.819352	0.00157594	4	-0.00768524	40	51.2052	-1.29125e-06
2	1	0	1	1	1158.33	-0.808403	-0.808354	0.00168455	4	-0.00768076	40	53.4054	-1.36172e-06
2	1	0	0	1	1160.53	-0.797402	-0.797342	0.00177065	4	-0.00767604	40	55.6056	-1.41181e-06
2	1	0	1	1	1162.73	-0.7864	-0.78633	0.00186474	4	-0.00767113	40	57.8058	-1.4663e-06
2	1	0	1	1	1164.93	-0.775399	-0.775336	0.00187579	4	-0.00766605	40	60.0062	-1.45436e-06
2	1	0	0	1	1167.13	-0.764398	-0.764341	0.00188806	4	-0.00766099	40	62.2064	-1.44312e-06
2	1	0	1	1	1169.33	-0.753397	-0.753313	0.00187034	4	-0.00765596	40	64.4066	-1.40896e-06
2	1	0	0	1	1171.53	-0.742396	-0.742318	0.00185548	4	-0.00765104	40	66.6068	-1.37735e-06
2	1	0	1	1	1173.73	-0.731395	-0.731329	0.00176949	4	-0.00764615	40	68.807	-1.29408e-06
2	1	0	0	1	1175.93	-0.720394	-0.720333	0.00170555	4	-0.00764145	40	71.0072	-1.22857e-06
2	1	0	1	1	1178.13	-0.709392	-0.709343	0.0017075	4	-0.00763683	40	73.2074	-1.2112e-06
2	1	0	1	1	1180.33	-0.698392	-0.69833	0.00181394	4	-0.00763212	40	75.4077	-1.26673e-06
2	1	0	0	1	1182.53	-0.68739	-0.687336	0.00173553	4	-0.00762738	40	77.608	-1.19289e-06
2	1	0	1	1	1184.73	-0.676389	-0.676341	0.00168908	4	-0.00762271	40	79.8082	-1.14239e-06
2	1	0	0	1	1186.94	-0.665388	-0.665345	0.0017135	4	-0.00761807	40	82.0084	-1.14007e-06
2	1	0	1	1	1189.14	-0.654387	-0.654338	0.00165332	4	-0.00761348	40	84.2086	-1.08183e-06
2	1	0	0	1	1191.34	-0.643386	-0.643332	0.00173275	4	-0.00760885	40	86.4088	-1.11473e-06
2	1	0	1	1	1193.54	-0.632384	-0.632325	0.00167713	4	-0.00760429	40	88.609	-1.06049e-06
2	1	0	1	1	1195.74	-0.621383	-0.621329	0.00170135	4	-0.00759967	40	90.8093	-1.0571e-06
2	1	0	0	1	1197.94	-0.610382	-0.610303	0.00168968	4	-0.00759496	40	93.0096	-1.03122e-06
2	1	0	1	1	1200.14	-0.599381	-0.599306	0.0017076	4	-0.00759039	40	95.2098	-1.02337e-06
2	1	0	0	1	1202.34	-0.58838	-0.588329	0.00173374	4	-0.00758583	40	97.41	-1.02001e-06
2	1	0	1	1	1204.54	-0.577379	-0.577351	0.00168091	4	-0.00758128	40	99.6102	-9.70475e-07
2	1	0	0	1	1206.74	-0.566378	-0.566315	0.00170602	4	-0.00757673	40	101.81	-9.66146e-07
2	1	0	1	1	1208.94	-0.555376	-0.555327	0.0016971	4	-0.00757212	40	104.011	-9.42448e-07
2	1	0	0	1	1211.14	-0.544375	-0.544315	0.00176646	4	-0.00756758	40	106.211	-9.61513e-07
2	1	0	0	1	1213.34	-0.533374	-0.533327	0.00163253	4	-0.00756313	40	108.411	-8.70671e-07
2	1	0	1	1	1215.54	-0.522373	-0.52231	0.00161471	4	-0.00755877	40	110.611	-8.43381e-07
2	1	0	0	1	1217.74	-0.511372	-0.511317	0.00158772	4	-0.00755445	40	112.812	-8.11827e-07
2	1	0	1	1	1219.94	-0.500371	-0.500346	0.00153762	4	-0.00755019	40	115.012	-7.69344e-07
2	1	0	0	1	1222.14	-0.48937	-0.489314	0.0015566	4	-0.00754595	40	117.212	-7.61664e-07
2	1	0	1	1	1224.34	-0.478368	-0.478329	0.0015561	4	-0.00754173	40	119.412	-7.44329e-07
2	1	0	0	1	1226.54	-0.467367	-0.467317	0.00152454	4	-0.00753756	40	121.612	-7.12445e-07
2	1	0	1	1	1228.74	-0.456366	-0.456328	0.00153774	4	-0.00753344	40	123.813	-7.01712e-07
2	1	0	1	1	1230.94	-0.445365	-0.445322	0.0015005	4	-0.00752935	40	126.013	-6.68204e-07
2	1	0	0	1	1233.14	-0.434364	-0.434352	0.00150942	4	-0.00752523	40	128.213	-6.55619e-07
2	1	0	1	1	1235.34	-0.423363	-0.423322	0.00151739	4	-0.00752113	40	130.413	-6.42346e-07
2	1	0	0	1	1237.54	-0.412362	-0.412317	0.00154197	4	-0.00751703	40	132.614	-6.3578e-07
2	1	0	1	1	1239.74	-0.401361	-0.401338	0.00153243	4	-0.00751293	40	134.814	-6.15021e-07
2	1	0	0	1	1241.94	-0.390359	-0.390317	0.00153186	4	-0.00750883	40	137.014	-5.97912e-07
2	0	0	1	1	1244.14	-0.379358	-0.379308	0.00152724	4	-0.00750474	40	139.214	-5.79294e-07
2	1	0	1	1	1246.34	-0.368357	-0.368327	0.00151472	4	-0.00750065	40	141.415	-5.57912e-07
2	1	0	0	1	1248.54	-0.357356	-0.357302	0.00154858	4	-0.00749654	40	143.615	-5.53312e-07
2	1	0	1	1	1250.74	-0.346355	-0.346318	0.00155781	4	-0.00749239	40	145.815	-5.39499e-07
2	1	0	0	1	1252.94	-0.335354	-0.335308	0.00157964	4	-0.00748823	40	148.015	-5.29665e-07
2	0	0	1	1	1255.14	-0.324353	-0.324325	0.00157789	4	-0.00748404	40	150.215	-5.11749e-07
2	1	0	0	1	1257.34	-0.313351	-0.313295	0.00158199	4	-0.00747983	40	152.416	-4.9563e-07
2	1	0	1	1	1259.54	-0.30235	-0.302302	0.00166045	4	-0.00747554	40	154.616	-5.01957e-07
2	1	0	1	1	1261.52	-0.307551	-0.3075	0.00115213	4	-0.00747313	40	156.597	-3.54279e-07
2	1	0	0	1	1263.72	-0.318552	-0.318503	0.000828735	4	-0.00747168	40	158.797	-2.63954e-07
2	1	0	0	1	1264.25	-0.321202	-0.321184	0.00053879	4	-0.00747141	40	159.323	-1.73051e-07