File: Fig 3/Fig 3_RRDE-np-Fe3O4_25mvs_ring.mpt
mode	ox/red	error	control changes	counter inc.	time/s	control/V	Ewe/V	<I>/mA	cycle number	(Q-Qo)/C	I Range	step time/s	P/W
2	1	1	0	0	0.000000000000000E+000	-0.299996	-0.300244	1.91327	1	0.0000000E+000	39	0.000000000000000E+000	-0.000574449
2	1	0	0	0	0.302	-0.307544	-0.307888	0.0298599	1	2.44854e-05	39	0.28	-9.19352e-06
2	1	0	0	0	0.622	-0.315543	-0.315889	0.0222784	1	3.24399e-05	39	0.6	-7.03751e-06
2	1	0	0	0	0.942	-0.323542	-0.323872	0.0191099	1	3.88659e-05	39	0.92	-6.18914e-06
2	1	0	1	0	1.2618	-0.33154	-0.331883	0.016975	1	4.44909e-05	39	1.2398	-5.6337e-06
2	1	0	1	0	1.5818	-0.339539	-0.339883	0.0157307	1	4.95943e-05	39	1.5598	-5.34658e-06
2	1	0	1	0	1.9018	-0.347537	-0.347889	0.0146676	1	5.43229e-05	39	1.8798	-5.10271e-06
2	1	0	1	0	2.2218	-0.355536	-0.355873	0.0137053	1	5.87284e-05	39	2.1998	-4.87733e-06
2	1	0	0	0	2.5416	-0.363535	-0.363855	0.0128789	1	6.28489e-05	39	2.5196	-4.68603e-06
2	1	0	0	0	2.8616	-0.371533	-0.371885	0.0120456	1	6.67134e-05	39	2.8396	-4.47957e-06
2	1	0	0	0	3.1816	-0.379532	-0.37988	0.0113872	1	7.03559e-05	39	3.1596	-4.32577e-06
2	1	0	1	0	3.5014	-0.38753	-0.387854	0.010823	1	7.37956e-05	39	3.4794	-4.19774e-06
2	1	0	1	0	3.8214	-0.395529	-0.395872	0.0103004	1	7.70492e-05	39	3.7994	-4.07764e-06
2	1	0	1	0	4.1414	-0.403528	-0.403872	0.0098429	1	8.01514e-05	39	4.1194	-3.97527e-06
2	1	0	1	0	4.4614	-0.411526	-0.411878	0.0093659	1	8.30936e-05	39	4.4394	-3.8576e-06
2	1	0	0	0	4.7812	-0.419525	-0.41988	0.00890016	1	8.58794e-05	39	4.7592	-3.737e-06
2	1	0	0	0	5.1012	-0.427523	-0.427877	0.00861502	1	8.85446e-05	39	5.0792	-3.68617e-06
2	1	0	0	0	5.4212	-0.435522	-0.435871	0.0083434	1	9.1117e-05	39	5.3992	-3.63665e-06
2	1	0	1	0	5.741	-0.443521	-0.443842	0.00798469	1	9.3585e-05	39	5.719	-3.54394e-06
2	1	0	1	0	6.061	-0.451519	-0.451858	0.00761663	1	9.59484e-05	39	6.039	-3.44163e-06
2	1	0	1	0	6.381	-0.459518	-0.459869	0.00721068	1	9.819e-05	39	6.359	-3.31597e-06
2	1	0	1	0	6.701	-0.467516	-0.467844	0.00693255	1	0.000100326	39	6.679	-3.24335e-06
2	1	0	0	0	7.0208	-0.475515	-0.475883	0.0066951	1	0.000102369	39	6.9988	-3.18609e-06
2	1	0	0	0	7.3408	-0.483513	-0.483852	0.00635805	1	0.000104326	39	7.3188	-3.07636e-06
2	1	0	0	0	7.6608	-0.491512	-0.491862	0.00614952	1	0.000106206	39	7.6388	-3.02471e-06
2	1	0	1	0	7.9806	-0.499511	-0.499838	0.00578585	1	0.000107998	39	7.9586	-2.89199e-06
2	1	0	1	0	8.3006	-0.507509	-0.507863	0.00559093	1	0.00010969	39	8.2786	-2.83943e-06
2	1	0	1	0	8.6206	-0.515508	-0.51585	0.0053865	1	0.000111321	39	8.5986	-2.77863e-06
2	1	0	1	0	8.9406	-0.523506	-0.523865	0.00519602	1	0.000112877	39	8.9186	-2.72201e-06
2	1	0	0	0	9.2604	-0.531505	-0.531863	0.00499892	1	0.000114374	39	9.2384	-2.65874e-06
2	1	0	0	0	9.5804	-0.539504	-0.539854	0.0047258	1	0.000115803	39	9.5584	-2.55124e-06
2	1	0	0	0	9.9004	-0.547502	-0.547837	0.00445501	1	0.000117148	39	9.8784	-2.44062e-06
2	1	0	1	0	10.2202	-0.555501	-0.555855	0.00433933	1	0.000118427	39	10.1982	-2.41204e-06
2	1	0	1	0	10.5402	-0.563499	-0.563844	0.00409949	1	0.000119644	39	10.5182	-2.31147e-06
2	1	0	1	0	10.8602	-0.571498	-0.571864	0.00400053	1	0.000120804	39	10.8382	-2.28776e-06
2	1	0	1	0	11.1802	-0.579497	-0.579854	0.00371597	1	0.000121881	39	11.1582	-2.15472e-06
2	1	0	0	0	11.5	-0.587495	-0.587853	0.00355805	1	0.000122901	39	11.478	-2.09161e-06
2	1	0	0	0	11.82	-0.595494	-0.59584	0.00335332	1	0.000123871	39	11.798	-1.99804e-06
2	1	0	0	0	12.14	-0.603492	-0.603844	0.00323252	1	0.000124787	39	12.118	-1.95194e-06
2	1	0	1	0	12.4599	-0.61149	-0.611825	0.00300925	1	0.000125627	39	12.4379	-1.84114e-06
2	1	0	1	0	12.7798	-0.61949	-0.619862	0.00281236	1	0.000126419	39	12.7578	-1.74327e-06
2	1	0	1	0	13.0998	-0.627488	-0.627858	0.00255	1	0.00012713	39	13.0778	-1.60104e-06
2	1	0	1	0	13.4198	-0.635487	-0.635863	0.00244247	1	0.000127796	39	13.3978	-1.55308e-06
2	1	0	0	0	13.7396	-0.643485	-0.643835	0.00222794	1	0.000128395	39	13.7176	-1.43442e-06
2	1	0	0	0	14.0596	-0.651484	-0.651822	0.00207195	1	0.000128935	39	14.0376	-1.35054e-06
2	1	0	0	0	14.3796	-0.659482	-0.659823	0.00184358	1	0.000129424	39	14.3576	-1.21644e-06
2	1	0	0	0	14.6996	-0.667481	-0.667835	0.00159926	1	0.000129844	39	14.6776	-1.06804e-06
2	1	0	1	0	15.0194	-0.67548	-0.675823	0.00146595	1	0.000130194	39	14.9974	-9.90725e-07
2	1	0	1	0	15.3394	-0.683478	-0.683841	0.00133156	1	0.000130484	39	15.3174	-9.10578e-07
2	1	0	1	0	15.6594	-0.691477	-0.691812	0.00107179	1	0.000130713	39	15.6374	-7.4148e-07
2	1	0	0	0	15.9792	-0.699475	-0.699818	0.000756396	1	0.000130853	39	15.9572	-5.2934e-07
2	1	0	0	0	16.2992	-0.707474	-0.707832	0.000482508	1	0.000130924	39	16.2772	-3.41534e-07
2	1	0	0	0	16.6192	-0.715473	-0.71582	0.000236648	1	0.000130908	39	0.12	-1.69398e-07
2	1	0	0	0	16.9392	-0.723471	-0.723822	1.27969e-05	1	0.000130806	39	0.44	-9.26265e-09
2	1	0	1	0	17.259	-0.73147	-0.731838	-0.000373733	1	0.00013059	39	0.7598	2.73512e-07
2	0	0	1	0	17.579	-0.739468	-0.739828	-0.000707955	1	0.000130279	39	1.0798	5.23765e-07
2	0	0	1	0	17.899	-0.747467	-0.747822	-0.00120892	1	0.000129829	39	1.3998	9.04053e-07
2	0	0	0	0	18.2188	-0.755466	-0.755818	-0.00163047	1	0.000129244	39	1.7196	1.23234e-06
2	0	0	0	0	18.5388	-0.763464	-0.763797	-0.00196579	1	0.000128534	39	2.0396	1.50146e-06
2	0	0	0	0	18.8588	-0.771463	-0.771798	-0.00249265	1	0.00012766	39	2.3596	1.92382e-06
2	0	0	0	0	19.1788	-0.779461	-0.77981	-0.00312674	1	0.000126618	39	2.6796	2.43827e-06
2	0	0	1	0	19.4986	-0.78746	-0.787805	-0.0037346	1	0.000125408	39	2.9994	2.94214e-06
2	0	0	1	0	19.8186	-0.795459	-0.795823	-0.00427502	1	0.000123991	39	3.3194	3.40216e-06
2	0	0	1	0	20.1386	-0.803457	-0.803806	-0.004926	1	0.000122372	39	3.6394	3.95955e-06
2	0	0	0	0	20.4584	-0.811456	-0.811828	-0.00561811	1	0.000120549	39	3.9592	4.56094e-06
2	0	0	0	0	20.7784	-0.819454	-0.819814	-0.00625832	1	0.000118497	39	4.2792	5.13066e-06
2	0	0	0	0	21.0984	-0.827453	-0.827822	-0.00707637	1	0.000116223	39	4.5992	5.85798e-06
2	0	0	0	0	21.4184	-0.835451	-0.835817	-0.00775693	1	0.000113732	39	4.9192	6.48338e-06
2	0	0	1	0	21.7382	-0.84345	-0.84381	-0.00842782	1	0.000111012	39	5.239	7.11147e-06
2	0	0	1	0	22.0582	-0.851449	-0.851797	-0.0092176	1	0.000108044	39	5.559	7.85152e-06
2	0	0	1	0	22.3782	-0.859447	-0.859822	-0.010083	1	0.000104812	39	5.879	8.66955e-06
2	0	0	1	0	22.6981	-0.867447	-0.867813	-0.0110789	1	0.000101276	39	6.1989	9.61441e-06
2	0	0	0	0	23.018	-0.875445	-0.87579	-0.0122727	1	9.73955e-05	39	6.5188	1.07483e-05
2	0	0	0	0	23.338	-0.883443	-0.883801	-0.0135351	1	9.31412e-05	39	6.8388	1.19624e-05
2	0	0	0	0	23.658	-0.891442	-0.891807	-0.0147896	1	8.84719e-05	39	7.1588	1.31895e-05
2	0	0	1	0	23.9778	-0.89944	-0.899811	-0.0158196	1	8.34299e-05	39	7.4786	1.42347e-05
2	0	0	1	0	24.2978	-0.907439	-0.90779	-0.0170302	1	7.80045e-05	39	7.7986	1.54598e-05
2	0	0	1	0	24.6178	-0.915437	-0.915799	-0.0181218	1	7.22184e-05	39	8.1186	1.6596e-05
2	0	0	1	0	24.9377	-0.923434	-0.923796	-0.0189158	1	6.6137e-05	39	8.4385	1.74743e-05
2	0	0	0	0	25.2576	-0.931435	-0.931789	-0.0196119	1	5.98168e-05	39	8.7584	1.82741e-05
2	0	0	0	0	25.5776	-0.939433	-0.939799	-0.0202554	1	5.32795e-05	39	9.0784	1.9036e-05
2	0	0	0	0	25.8976	-0.947432	-0.947784	-0.0207104	1	4.65778e-05	39	9.3984	1.9629e-05
2	0	0	1	0	26.2174	-0.95543	-0.955772	-0.0212993	1	3.97087e-05	39	9.7182	2.03572e-05
2	0	0	1	0	26.5374	-0.963429	-0.963776	-0.0218975	1	3.2674e-05	39	10.0382	2.11043e-05
2	0	0	1	0	26.8574	-0.971428	-0.971786	-0.0226843	1	2.54093e-05	39	10.3582	2.20443e-05
2	0	0	1	0	27.1774	-0.979426	-0.979773	-0.023625	1	1.78632e-05	39	10.6782	2.31471e-05
2	0	0	0	0	27.4972	-0.987425	-0.987786	-0.0248543	1	9.97385e-06	39	10.998	2.45508e-05
2	0	0	0	0	27.8172	-0.995423	-0.99578	-0.0265005	1	1.61176e-06	39	11.318	2.63887e-05
2	0	0	0	0	28.1372	-1.00342	-1.00376	-0.0286497	1	-7.34848e-06	39	11.638	2.87574e-05
2	0	0	1	0	28.457	-1.01142	-1.01176	-0.0314798	1	-1.709e-05	39	11.9578	3.18501e-05
2	0	0	1	0	28.777	-1.01942	-1.01976	-0.0349901	1	-2.7861e-05	39	12.2778	3.56816e-05
2	0	0	1	0	29.097	-1.02742	-1.02777	-0.0396162	1	-3.99237e-05	39	12.5978	4.07165e-05
2	0	0	1	0	29.417	-1.03542	-1.03577	-0.0451001	1	-5.36028e-05	39	12.9178	4.67132e-05
2	0	0	0	0	29.7368	-1.04341	-1.04378	-0.0516427	1	-6.91983e-05	39	13.2376	5.39037e-05
2	0	0	0	0	30.0568	-1.05141	-1.05176	-0.0586941	1	-8.69856e-05	39	13.5576	6.1732e-05
2	0	0	0	0	30.3768	-1.05941	-1.05976	-0.0655923	1	-0.00010702	39	13.8776	6.95119e-05
2	0	0	1	0	30.6966	-1.06741	-1.06775	-0.0721379	1	-0.00012923	39	14.1974	7.70255e-05
2	0	0	1	0	31.0166	-1.07541	-1.07575	-0.0777972	1	-0.00015339	39	14.5174	8.369e-05
2	0	0	1	0	31.3366	-1.08341	-1.08375	-0.0822628	1	-0.000179213	39	14.8374	8.91525e-05
2	0	0	1	0	31.6566	-1.09141	-1.09176	-0.0857651	1	-0.000206269	39	15.1574	9.36351e-05
2	0	0	0	0	31.9764	-1.09941	-1.09976	-0.0879164	1	-0.000234199	39	15.4772	9.66872e-05
2	0	0	0	0	32.2964	-1.1074	-1.10774	-0.088451	1	-0.000262579	39	15.7972	9.79811e-05
2	0	0	0	0	32.6164	-1.1154	-1.11571	-0.0879055	1	-0.000290977	39	16.1172	9.80772e-05
2	0	0	1	0	32.9362	-1.1234	-1.12375	-0.0861676	1	-0.000318991	39	16.437	9.6831e-05
2	0	0	1	0	33.2562	-1.1314	-1.13177	-0.0842674	1	-0.000346407	39	16.757	9.53715e-05
2	0	0	1	0	33.5762	-1.1394	-1.13974	-0.0828206	1	-0.000373282	39	17.077	9.43939e-05
2	0	0	1	0	33.8962	-1.1474	-1.14773	-0.0828002	1	-0.000399881	39	17.397	9.50321e-05
2	0	0	0	0	34.216	-1.1554	-1.15573	-0.0847669	1	-0.00042676	39	17.7168	9.79675e-05
2	0	0	0	0	34.536	-1.16339	-1.16374	-0.0900001	1	-0.000454662	39	18.0368	0.000104737
2	0	0	0	0	34.856	-1.17139	-1.17175	-0.0975363	1	-0.000484705	39	18.3568	0.000114288
2	0	0	1	0	35.1759	-1.17939	-1.17973	-0.10773	1	-0.000517671	39	18.6767	0.000127092
2	0	0	1	0	35.4958	-1.18739	-1.18774	-0.119245	1	-0.00055402	39	18.9966	0.000141631
2	0	0	1	0	35.8158	-1.19539	-1.19571	-0.128371	1	-0.00059391	39	19.3166	0.000153494
2	0	0	1	0	36.1358	-1.20339	-1.20373	-0.136245	1	-0.000636649	39	19.6366	0.000164003
2	0	0	0	0	36.4556	-1.21139	-1.21172	-0.143469	1	-0.000681582	39	19.9564	0.000173844
2	0	0	0	0	36.7756	-1.21938	-1.21974	-0.145946	1	-0.000728115	39	20.2764	0.000178016
2	0	0	0	0	37.0956	-1.22738	-1.22774	-0.150753	1	-0.000775678	39	20.5964	0.000185085
2	0	0	0	0	37.4156	-1.23538	-1.23573	-0.15517	1	-0.000824704	39	20.9164	0.000191749
2	0	0	1	0	37.7354	-1.24338	-1.24375	-0.162268	1	-0.000875768	39	21.2362	0.000201822
2	0	0	1	0	38.0554	-1.25138	-1.25172	-0.171174	1	-0.000929316	39	21.5562	0.000214262
2	0	0	1	0	38.3754	-1.25938	-1.25973	-0.181767	1	-0.000985645	39	21.8762	0.000228977
2	0	0	0	0	38.6952	-1.26738	-1.26773	-0.19367	1	-0.00104551	39	22.196	0.000245522
2	0	0	0	0	39.0152	-1.27537	-1.27572	-0.209168	1	-0.0011098	39	22.516	0.000266841
2	0	0	0	0	39.3352	-1.28337	-1.28373	-0.234283	1	-0.00118052	39	22.836	0.000300757
2	0	0	0	0	39.6552	-1.29137	-1.29175	-0.26305	1	-0.00125971	39	23.156	0.000339794
2	0	0	1	0	39.975	-1.29937	-1.29973	-0.303183	1	-0.00134989	39	23.4758	0.000394057
2	0	0	1	0	40.295	-1.30737	-1.30774	-0.35903	1	-0.00145568	39	23.7958	0.000469519
2	0	0	1	0	40.615	-1.31537	-1.31573	-0.43276	1	-0.00158216	39	24.1158	0.000569394
2	0	0	0	0	40.9348	-1.32337	-1.32373	-0.521274	1	-0.00173483	39	24.4356	0.000690024
2	0	0	0	0	41.2548	-1.33136	-1.33175	-0.637813	1	-0.00192052	39	24.7556	0.000849406
2	0	0	0	0	41.5748	-1.33936	-1.33972	-0.75429	1	-0.00214369	39	25.0756	0.00101054
2	0	0	0	0	41.8948	-1.34736	-1.34775	-0.877409	1	-0.00240445	39	25.3956	0.00118252
2	0	0	1	1	42.143	-1.34646	-1.34683	-0.864974	2	-0.00262547	39	25.6438	0.00116497
2	0	0	1	1	42.463	-1.33846	-1.33883	-0.767239	2	-0.00288635	39	25.9638	0.0010272
2	0	0	1	1	42.783	-1.33046	-1.33083	-0.669715	2	-0.0031159	39	26.2838	0.000891279
2	0	0	1	1	43.103	-1.32247	-1.32283	-0.592787	2	-0.00331702	39	26.6038	0.000784158
2	0	0	0	1	43.4228	-1.31447	-1.31482	-0.522161	2	-0.00349477	39	26.9236	0.00068655
2	0	0	0	1	43.7428	-1.30647	-1.30682	-0.466574	2	-0.00365276	39	27.2436	0.000609731
2	0	0	0	1	44.0628	-1.29847	-1.29884	-0.420328	2	-0.00379441	39	27.5636	0.000545937
2	0	0	1	1	44.3826	-1.29047	-1.29081	-0.380492	2	-0.00392231	39	27.8834	0.000491143
2	0	0	1	1	44.7026	-1.28247	-1.28282	-0.345092	2	-0.00403847	39	28.2034	0.000442692
2	0	0	1	1	45.0226	-1.27447	-1.27484	-0.316233	2	-0.00414407	39	28.5234	0.000403145
2	0	0	1	1	45.3426	-1.26648	-1.26683	-0.288962	2	-0.00424084	39	28.8434	0.000366067
2	0	0	0	1	45.6624	-1.25848	-1.25886	-0.265832	2	-0.00432948	39	29.1632	0.000334646
2	0	0	0	1	45.9824	-1.25048	-1.25085	-0.244717	2	-0.00441089	39	29.4832	0.000306104
2	0	0	0	1	46.3024	-1.24248	-1.24284	-0.226177	2	-0.00448604	39	29.8032	0.000281102
2	0	0	1	1	46.6222	-1.23448	-1.23483	-0.209725	2	-0.00455549	39	30.123	0.000258976
2	0	0	1	1	46.9422	-1.22648	-1.22684	-0.195023	2	-0.00462001	39	30.443	0.000239261
2	0	0	1	1	47.2622	-1.21848	-1.21883	-0.181505	2	-0.00468008	39	30.763	0.000221225
2	0	0	1	1	47.5822	-1.21049	-1.21082	-0.168389	2	-0.00473586	39	31.083	0.000203889
2	0	0	0	1	47.902	-1.20249	-1.20284	-0.156193	2	-0.00478768	39	31.4028	0.000187876
2	0	0	0	1	48.222	-1.19449	-1.19485	-0.144283	2	-0.00483557	39	31.7228	0.000172396
2	0	0	0	1	48.542	-1.18649	-1.18685	-0.132268	2	-0.00487972	39	32.0428	0.000156982
2	0	0	1	1	48.8618	-1.17849	-1.17885	-0.120493	2	-0.00491998	39	32.3626	0.000142043
2	0	0	1	1	49.1818	-1.17049	-1.17083	-0.108436	2	-0.00495645	39	32.6826	0.00012696
2	0	0	1	1	49.5018	-1.16249	-1.16284	-0.0968941	2	-0.00498911	39	33.0026	0.000112672
2	0	0	1	1	49.8218	-1.1545	-1.15484	-0.0854039	2	-0.00501814	39	33.3226	9.86278e-05
2	0	0	0	1	50.1416	-1.1465	-1.14685	-0.074917	2	-0.0050436	39	33.6424	8.59184e-05
2	0	0	0	1	50.4616	-1.1385	-1.13885	-0.0651158	2	-0.00506582	39	33.9624	7.4157e-05
2	0	0	0	1	50.7816	-1.1305	-1.13084	-0.0564859	2	-0.00508508	39	34.2824	6.38766e-05
2	0	0	1	1	51.1014	-1.1225	-1.12285	-0.0484895	2	-0.00510168	39	34.6022	5.44464e-05
2	0	0	1	1	51.4214	-1.1145	-1.11483	-0.0414843	2	-0.0051159	39	34.9222	4.6248e-05
2	0	0	1	1	51.7414	-1.1065	-1.10684	-0.0350984	2	-0.00512798	39	35.2422	3.88482e-05
2	0	0	1	1	52.0614	-1.09851	-1.09885	-0.0294685	2	-0.00513815	39	35.5622	3.23815e-05
2	0	0	0	1	52.3812	-1.09051	-1.09085	-0.0241345	2	-0.00514656	39	35.882	2.63271e-05
2	0	0	0	1	52.7012	-1.08251	-1.08285	-0.0191265	2	-0.0051533	39	36.202	2.07111e-05
2	0	0	0	1	53.0212	-1.07451	-1.07487	-0.0147454	2	-0.00515855	39	36.522	1.58493e-05
2	0	0	1	1	53.3412	-1.06651	-1.06684	-0.0101748	2	-0.00516238	39	36.842	1.08549e-05
2	0	0	1	1	53.661	-1.05851	-1.05886	-0.00637482	2	-0.00516486	39	37.1618	6.75003e-06
2	0	0	1	1	53.981	-1.05051	-1.05087	-0.00279314	2	-0.00516616	39	37.4818	2.93523e-06
2	0	0	1	1	54.301	-1.04252	-1.04288	0.000703573	2	-0.00516631	39	0.08	-7.3374e-07
2	1	0	0	1	54.6208	-1.03452	-1.03489	0.00389864	2	-0.0051654	39	0.3998	-4.03466e-06
2	1	0	0	1	54.9408	-1.02652	-1.02688	0.00646525	2	-0.00516358	39	0.7198	-6.63902e-06
2	1	0	0	1	55.2608	-1.01852	-1.01887	0.00894897	2	-0.00516097	39	1.0398	-9.11785e-06
2	1	0	0	1	55.5808	-1.01052	-1.01089	0.0118239	2	-0.00515753	39	1.3598	-1.19527e-05
2	1	0	1	1	55.9006	-1.00252	-1.00287	0.0160112	2	-0.00515294	39	1.6796	-1.6057e-05
2	1	0	1	1	56.2206	-0.994524	-0.994856	0.0214917	2	-0.00514681	39	1.9996	-2.13811e-05
2	1	0	1	1	56.5406	-0.986525	-0.986884	0.0282523	2	-0.00513871	39	2.3196	-2.78818e-05
2	1	0	0	1	56.8604	-0.978526	-0.978852	0.0363867	2	-0.00512825	39	2.6394	-3.56172e-05
2	1	0	0	1	57.1804	-0.970528	-0.970876	0.0454992	2	-0.00511502	39	2.9594	-4.41741e-05
2	1	0	0	1	57.5004	-0.962529	-0.962898	0.0558703	2	-0.00509864	39	3.2794	-5.37974e-05
2	1	0	0	1	57.8204	-0.95453	-0.954866	0.0672488	2	-0.00507879	39	3.5994	-6.42136e-05
2	1	0	1	1	58.1402	-0.946532	-0.946873	0.0788547	2	-0.00505525	39	3.9192	-7.46654e-05
2	1	0	1	1	58.4602	-0.938533	-0.938871	0.0905401	2	-0.00502799	39	4.2392	-8.50054e-05
2	1	0	1	1	58.7802	-0.930535	-0.930884	0.101276	2	-0.00499713	39	4.5592	-9.42761e-05
2	1	0	0	1	59.1	-0.922536	-0.922903	0.110749	2	-0.00496305	39	4.879	-0.00010221
2	1	0	0	1	59.42	-0.914538	-0.914876	0.118976	2	-0.0049261	39	5.199	-0.000108848
2	1	0	0	1	59.74	-0.906539	-0.906875	0.125884	2	-0.00488673	39	5.519	-0.000114161
2	1	0	0	1	60.06	-0.89854	-0.898913	0.131262	2	-0.00484541	39	5.839	-0.000117994
2	1	0	1	1	60.3798	-0.890542	-0.890895	0.135674	2	-0.00480255	39	6.1588	-0.000120871
2	1	0	1	1	60.6998	-0.882543	-0.882904	0.139348	2	-0.00475835	39	6.4788	-0.000123031
2	1	0	1	1	61.0198	-0.874545	-0.874926	0.142611	2	-0.00471305	39	6.7988	-0.000124774
2	1	0	0	1	61.3396	-0.866546	-0.866909	0.145445	2	-0.00466681	39	7.1186	-0.000126088
2	1	0	0	1	61.6596	-0.858548	-0.858927	0.147872	2	-0.00461973	39	7.4386	-0.000127012
2	1	0	0	1	61.9796	-0.850549	-0.850898	0.149888	2	-0.00457195	39	7.7586	-0.00012754
2	1	0	0	1	62.2996	-0.84255	-0.842901	0.151173	2	-0.00452355	39	8.0786	-0.000127424
2	1	0	1	1	62.6194	-0.834552	-0.834897	0.151575	2	-0.00447495	39	8.3984	-0.00012655
2	1	0	1	1	62.9394	-0.826553	-0.826878	0.150647	2	-0.0044264	39	8.7184	-0.000124567
2	1	0	1	1	63.2594	-0.818555	-0.818913	0.147422	2	-0.00437856	39	9.0384	-0.000120726
2	1	0	1	1	63.5793	-0.810558	-0.810924	0.143036	2	-0.00433186	39	9.3583	-0.000115992
2	1	0	0	1	63.8992	-0.802557	-0.802879	0.137318	2	-0.00428682	39	9.6782	-0.00011025
2	1	0	0	1	64.2192	-0.794559	-0.794893	0.130235	2	-0.00424382	39	9.9982	-0.000103523
2	1	0	0	1	64.5392	-0.78656	-0.78693	0.122717	2	-0.00420317	39	10.3182	-9.65694e-05
2	1	0	1	1	64.859	-0.778562	-0.778899	0.11443	2	-0.00416508	39	10.638	-8.9129e-05
2	1	0	1	1	65.179	-0.770563	-0.770915	0.10573	2	-0.00412971	39	10.958	-8.15087e-05
2	1	0	1	1	65.499	-0.762564	-0.762914	0.097168	2	-0.00409711	39	11.278	-7.41308e-05
2	1	0	1	1	65.819	-0.754566	-0.754909	0.0885712	2	-0.00406724	39	11.598	-6.68632e-05
2	1	0	0	1	66.1388	-0.746567	-0.746923	0.0804184	2	-0.00404004	39	11.9178	-6.00663e-05
2	1	0	0	1	66.4588	-0.738569	-0.738913	0.0727236	2	-0.00401539	39	12.2378	-5.37365e-05
2	1	0	0	1	66.7788	-0.73057	-0.730932	0.0656115	2	-0.00399311	39	12.5578	-4.79575e-05
2	1	0	1	1	67.0986	-0.722571	-0.722938	0.0592758	2	-0.003973	39	12.8776	-4.28527e-05
2	1	0	1	1	67.4186	-0.714573	-0.714926	0.0534255	2	-0.00395483	39	13.1976	-3.81953e-05
2	1	0	1	1	67.7386	-0.706574	-0.706935	0.0482152	2	-0.00393841	39	13.5176	-3.4085e-05
2	1	0	1	1	68.0586	-0.698576	-0.698935	0.0434495	2	-0.0039236	39	13.8376	-3.03683e-05
2	1	0	0	1	68.3784	-0.690577	-0.690944	0.0396018	2	-0.00391018	39	14.1574	-2.73626e-05
2	1	0	0	1	68.6984	-0.682578	-0.682943	0.0359901	2	-0.00389794	39	14.4774	-2.45792e-05
2	1	0	0	1	69.0184	-0.67458	-0.674929	0.0329613	2	-0.00388675	39	14.7974	-2.22466e-05
2	1	0	1	1	69.3382	-0.666581	-0.66695	0.0303092	2	-0.00387646	39	15.1172	-2.02147e-05
2	1	0	1	1	69.6582	-0.658583	-0.658942	0.027907	2	-0.00386696	39	15.4372	-1.83891e-05
2	1	0	1	1	69.9782	-0.650584	-0.650941	0.0259042	2	-0.00385818	39	15.7572	-1.68621e-05
2	1	0	1	1	70.2982	-0.642585	-0.642953	0.024114	2	-0.00385002	39	16.0772	-1.55042e-05
2	1	0	0	1	70.618	-0.634587	-0.634949	0.022369	2	-0.00384243	39	16.397	-1.42032e-05
2	1	0	0	1	70.938	-0.626588	-0.626937	0.0208994	2	-0.00383532	39	16.717	-1.31026e-05
2	1	0	0	1	71.258	-0.61859	-0.618946	0.0195732	2	-0.00382865	39	17.037	-1.21148e-05
2	1	0	1	1	71.5778	-0.610591	-0.610929	0.0185435	2	-0.0038224	39	17.3568	-1.13288e-05
2	1	0	1	1	71.8978	-0.602593	-0.602946	0.0175252	2	-0.00381648	39	17.6768	-1.05667e-05
2	1	0	1	1	72.2178	-0.594594	-0.594931	0.0165686	2	-0.00381086	39	17.9968	-9.8572e-06
2	1	0	1	1	72.5378	-0.586595	-0.586933	0.0157152	2	-0.00380551	39	18.3168	-9.22379e-06
2	1	0	0	1	72.8576	-0.578597	-0.578954	0.0149818	2	-0.00380042	39	18.6366	-8.67374e-06
2	1	0	0	1	73.1776	-0.570598	-0.570938	0.0143639	2	-0.00379555	39	18.9566	-8.20089e-06
2	1	0	0	1	73.4976	-0.5626	-0.562953	0.0136849	2	-0.00379088	39	19.2766	-7.70395e-06
2	1	0	1	1	73.8175	-0.554599	-0.55496	0.0133369	2	-0.00378638	39	19.5965	-7.40143e-06
2	1	0	1	1	74.1374	-0.546602	-0.546967	0.0128292	2	-0.00378204	39	19.9164	-7.01716e-06
2	1	0	1	1	74.4574	-0.538604	-0.538962	0.0123455	2	-0.00377784	39	20.2364	-6.65373e-06
2	1	0	1	1	74.7774	-0.530605	-0.530963	0.0119552	2	-0.00377377	39	20.5564	-6.34777e-06
2	1	0	0	1	75.0972	-0.522607	-0.522953	0.0116771	2	-0.0037698	39	20.8762	-6.10656e-06
2	1	0	0	1	75.4172	-0.514608	-0.514948	0.0113826	2	-0.00376597	39	21.1962	-5.86145e-06
2	1	0	0	1	75.7372	-0.506609	-0.506962	0.0109602	2	-0.00376224	39	21.5162	-5.55641e-06
2	1	0	1	1	76.0571	-0.498613	-0.498961	0.0107214	2	-0.00375859	39	21.8361	-5.34955e-06
2	1	0	1	1	76.377	-0.490612	-0.490955	0.0104999	2	-0.00375503	39	22.156	-5.15498e-06
2	1	0	1	1	76.697	-0.482614	-0.482955	0.0103135	2	-0.00375155	39	22.476	-4.98095e-06
2	1	0	1	1	77.017	-0.474615	-0.474932	0.01012	2	-0.00374812	39	22.796	-4.80633e-06
2	1	0	0	1	77.3368	-0.466616	-0.466963	0.00998169	2	-0.00374474	39	23.1158	-4.66108e-06
2	1	0	0	1	77.6568	-0.458618	-0.458964	0.00983559	2	-0.00374141	39	23.4358	-4.51418e-06
2	1	0	0	1	77.9768	-0.450619	-0.450943	0.00952821	2	-0.00373812	39	23.7558	-4.29668e-06
2	1	0	0	1	78.2968	-0.442621	-0.442941	0.00950831	2	-0.00373487	39	24.0758	-4.21162e-06
2	1	0	1	1	78.6166	-0.434622	-0.43495	0.00948649	2	-0.00373166	39	24.3956	-4.12615e-06
2	1	0	1	1	78.9366	-0.426623	-0.426969	0.0093391	2	-0.00372848	39	24.7156	-3.9875e-06
2	1	0	1	1	79.2566	-0.418625	-0.418968	0.00932997	2	-0.00372532	39	25.0356	-3.90896e-06
2	1	0	0	1	79.5764	-0.410626	-0.410993	0.00914466	2	-0.00372221	39	25.3554	-3.75839e-06
2	1	0	0	1	79.8964	-0.402628	-0.402963	0.00915133	2	-0.00371909	39	25.6754	-3.68764e-06
2	1	0	0	1	80.2164	-0.394629	-0.394976	0.00914304	2	-0.00371599	39	25.9954	-3.61128e-06
2	1	0	0	1	80.5364	-0.386631	-0.38696	0.00903134	2	-0.00371292	39	26.3154	-3.49477e-06
2	1	0	1	1	80.8562	-0.378632	-0.378981	0.00898243	2	-0.00370986	39	26.6352	-3.40417e-06
2	1	0	1	1	81.1762	-0.370633	-0.370974	0.00884456	2	-0.00370682	39	26.9552	-3.2811e-06
2	1	0	1	1	81.4962	-0.362635	-0.362958	0.00885515	2	-0.00370379	39	27.2752	-3.21405e-06
2	1	0	0	1	81.816	-0.354636	-0.354969	0.00888833	2	-0.0037008	39	27.595	-3.15509e-06
2	1	0	0	1	82.136	-0.346638	-0.347003	0.0087476	2	-0.00369782	39	27.915	-3.03544e-06
2	1	0	0	1	82.456	-0.338639	-0.338987	0.00879893	2	-0.00369485	39	28.235	-2.98272e-06
2	1	0	0	1	82.776	-0.33064	-0.331012	0.0088014	2	-0.00369188	39	28.555	-2.91337e-06
2	1	0	1	1	83.0958	-0.322642	-0.322996	0.00863262	2	-0.00368892	39	28.8748	-2.7883e-06
2	1	0	1	1	83.4158	-0.314643	-0.314987	0.00858198	2	-0.00368597	39	29.1948	-2.70321e-06
2	1	0	1	1	83.7358	-0.306645	-0.306998	0.00865926	2	-0.00368302	39	29.5148	-2.65838e-06
2	1	0	1	1	84.0022	-0.299996	-0.300302	0.00874748	2	-0.00368055	39	29.7812	-2.62688e-06
2	1	0	1	1	84.3042	-0.307544	-0.307901	0.00617818	2	-0.00367866	39	30.0832	-1.90227e-06
2	1	0	1	1	84.6242	-0.315543	-0.315888	0.00558847	2	-0.00367694	39	30.4032	-1.76533e-06
2	1	0	1	1	84.9442	-0.323542	-0.323876	0.00500963	2	-0.00367544	39	30.7232	-1.6225e-06
2	1	0	0	1	85.264	-0.33154	-0.331884	0.00453825	2	-0.00367409	39	31.043	-1.50617e-06
2	1	0	0	1	85.584	-0.339539	-0.339878	0.00409631	2	-0.00367287	39	31.363	-1.39225e-06
2	1	0	0	1	85.904	-0.347537	-0.347883	0.00385379	2	-0.00367177	39	31.683	-1.34067e-06
2	1	0	0	1	86.224	-0.355536	-0.355861	0.00365829	2	-0.00367075	39	32.003	-1.30184e-06
2	1	0	1	1	86.5438	-0.363535	-0.363869	0.00343405	2	-0.00366981	39	32.3228	-1.24955e-06
2	1	0	1	1	86.8638	-0.371533	-0.37187	0.00308515	2	-0.00366895	39	32.6428	-1.14727e-06
2	1	0	1	1	87.1838	-0.379532	-0.379889	0.00303755	2	-0.00366814	39	32.9628	-1.15393e-06
2	1	0	0	1	87.5036	-0.38753	-0.387868	0.00275082	2	-0.00366739	39	33.2826	-1.06696e-06
2	1	0	0	1	87.8236	-0.395529	-0.395883	0.00270651	2	-0.0036667	39	33.6026	-1.07146e-06
2	1	0	0	1	88.1436	-0.403528	-0.403863	0.00247908	2	-0.00366605	39	33.9226	-1.00121e-06
2	1	0	0	1	88.4636	-0.411526	-0.411866	0.00240331	2	-0.00366544	39	34.2426	-9.89844e-07
2	1	0	1	1	88.7834	-0.419525	-0.41988	0.00226912	2	-0.00366486	39	34.5624	-9.52758e-07
2	1	0	1	1	89.1034	-0.427523	-0.427883	0.0020496	2	-0.00366433	39	34.8824	-8.76989e-07
2	1	0	1	1	89.4234	-0.435522	-0.435867	0.00198375	2	-0.00366386	39	35.2024	-8.6465e-07
2	1	0	0	1	89.7432	-0.443521	-0.443865	0.0018489	2	-0.00366342	39	35.5222	-8.20664e-07
2	1	0	0	1	90.0632	-0.451519	-0.451851	0.00183301	2	-0.003663	39	35.8422	-8.28248e-07
2	1	0	0	1	90.3832	-0.459518	-0.459852	0.00168525	2	-0.00366263	39	36.1622	-7.74964e-07
2	1	0	0	1	90.7032	-0.467516	-0.46785	0.00161495	2	-0.00366228	39	36.4822	-7.55553e-07
2	1	0	1	1	91.023	-0.475515	-0.475858	0.00153725	2	-0.00366197	39	36.802	-7.31512e-07
2	1	0	1	1	91.343	-0.483513	-0.483848	0.00148367	2	-0.00366168	39	37.122	-7.17874e-07
2	1	0	1	1	91.663	-0.491512	-0.491842	0.00141294	2	-0.00366141	39	37.442	-6.94941e-07
2	1	0	0	1	91.9828	-0.499511	-0.499876	0.00112882	2	-0.00366119	39	37.7618	-5.6427e-07
2	1	0	0	1	92.3028	-0.507509	-0.507854	0.00115043	2	-0.00366098	39	38.0818	-5.84249e-07
2	1	0	0	1	92.6228	-0.515508	-0.51585	0.00107434	2	-0.00366081	39	38.4018	-5.54198e-07
2	1	0	0	1	92.9428	-0.523506	-0.523849	0.00102676	2	-0.00366067	39	38.7218	-5.37869e-07
2	1	0	1	1	93.2626	-0.531505	-0.531864	0.000880868	2	-0.00366055	39	39.0416	-4.68502e-07
2	1	0	1	1	93.5826	-0.539504	-0.53985	0.000665741	2	-0.00366048	39	39.3616	-3.59401e-07
2	1	0	1	1	93.9026	-0.547502	-0.547839	0.000546816	2	-0.00366044	39	0.000000000000000E+000	-2.99567e-07
2	1	0	0	1	94.2224	-0.555501	-0.555835	0.000469065	2	-0.00366043	39	0.000000000000000E+000	-2.60723e-07
2	1	0	0	1	94.5424	-0.563499	-0.563836	0.000451017	2	-0.00366044	39	0.12	-2.543e-07
2	1	0	0	1	94.8624	-0.571498	-0.571831	0.000519457	2	-0.00366048	39	0.24	-2.97042e-07
2	1	0	0	1	95.1824	-0.579497	-0.579842	0.000366601	2	-0.00366055	39	0.56	-2.1257e-07
2	1	0	1	1	95.5022	-0.587495	-0.587845	0.000208285	2	-0.00366066	39	0.8798	-1.22439e-07
2	0	0	1	1	95.8222	-0.595494	-0.595826	0.000143796	2	-0.0036608	39	1.1998	-8.56775e-08
2	0	0	1	1	96.1422	-0.603492	-0.603836	6.18714e-05	2	-0.00366098	39	1.5198	-3.73602e-08
2	1	0	1	1	96.4621	-0.61149	-0.611823	-0.000118626	2	-0.00366117	39	1.8397	7.25783e-08
2	1	0	0	1	96.782	-0.61949	-0.619823	-0.000105004	2	-0.0036614	39	2.1596	6.50841e-08
2	0	0	0	1	97.102	-0.627488	-0.627841	-0.000234168	2	-0.00366167	39	2.4796	1.4702e-07
2	0	0	0	1	97.422	-0.635487	-0.635826	-0.000418908	2	-0.00366198	39	2.7996	2.66353e-07
2	0	0	1	1	97.7418	-0.643485	-0.643834	-0.00056031	2	-0.0036623	39	3.1194	3.60747e-07
2	0	0	1	1	98.0618	-0.651484	-0.651828	-0.000538997	2	-0.00366266	39	3.4394	3.51333e-07
2	1	0	1	1	98.3818	-0.659482	-0.659833	-0.00066421	2	-0.00366305	39	3.7594	4.38268e-07
2	1	0	1	1	98.7018	-0.667481	-0.667834	-0.000758001	2	-0.00366349	39	4.0794	5.06218e-07
2	0	0	0	1	99.0216	-0.67548	-0.675808	-0.000821894	2	-0.00366395	39	4.3992	5.55443e-07
2	0	0	0	1	99.3416	-0.683478	-0.683831	-0.00101895	2	-0.00366446	39	4.7192	6.9679e-07
2	0	0	0	1	99.6616	-0.691477	-0.691797	-0.00114417	2	-0.00366498	39	5.0392	7.91532e-07
2	0	0	1	1	99.9814	-0.699475	-0.699806	-0.00121214	2	-0.00366555	39	5.359	8.48264e-07
2	0	0	1	1	100.301	-0.707474	-0.707823	-0.00129405	2	-0.00366616	39	5.679	9.15956e-07
2	0	0	1	1	100.621	-0.715473	-0.715816	-0.00148185	2	-0.00366681	39	5.999	1.06073e-06
2	0	0	1	1	100.941	-0.723471	-0.723828	-0.00182915	2	-0.00366752	39	6.319	1.32399e-06
2	0	0	0	1	101.261	-0.73147	-0.731819	-0.00186324	2	-0.0036683	39	6.6388	1.36356e-06
2	0	0	0	1	101.581	-0.739468	-0.739839	-0.00202695	2	-0.00366911	39	6.9588	1.49961e-06
2	0	0	0	1	101.901	-0.747467	-0.747845	-0.00211356	2	-0.00366998	39	7.2788	1.58061e-06
2	0	0	1	1	102.221	-0.755466	-0.755825	-0.002415	2	-0.00367092	39	7.5986	1.82532e-06
2	0	0	1	1	102.541	-0.763464	-0.763809	-0.0026241	2	-0.00367193	39	7.9186	2.00431e-06
2	0	0	1	1	102.861	-0.771463	-0.771813	-0.00274692	2	-0.00367301	39	8.2386	2.12011e-06
2	0	0	1	1	103.181	-0.779461	-0.779812	-0.00282327	2	-0.00367412	39	8.5586	2.20162e-06
2	0	0	0	1	103.501	-0.78746	-0.787791	-0.00305813	2	-0.00367529	39	8.8784	2.40917e-06
2	0	0	0	1	103.821	-0.795459	-0.795805	-0.00319307	2	-0.00367653	39	9.1984	2.54106e-06
2	0	0	0	1	104.141	-0.803457	-0.803783	-0.00350897	2	-0.00367783	39	9.5184	2.82045e-06
2	0	0	1	1	104.461	-0.811456	-0.811808	-0.00366249	2	-0.00367915	39	9.8382	2.97324e-06
2	0	0	1	1	104.781	-0.819454	-0.819827	-0.00380968	2	-0.00368054	39	10.1582	3.12328e-06
2	0	0	1	1	105.101	-0.827453	-0.827806	-0.00389532	2	-0.00368194	39	10.4782	3.22457e-06
2	0	0	1	1	105.421	-0.835451	-0.835825	-0.00383593	2	-0.00368341	39	10.7982	3.20617e-06
2	0	0	0	1	105.74	-0.84345	-0.843847	-0.00420728	2	-0.00368492	39	11.118	3.5503e-06
2	0	0	0	1	106.06	-0.851449	-0.851803	-0.0043448	2	-0.00368649	39	11.438	3.70091e-06
2	0	0	0	1	106.38	-0.859447	-0.859825	-0.00468784	2	-0.00368814	39	11.758	4.03072e-06
2	0	0	1	1	106.7	-0.867447	-0.867794	-0.00466262	2	-0.00368986	39	12.0779	4.0462e-06
2	0	0	1	1	107.02	-0.875445	-0.875815	-0.00524213	2	-0.00369166	39	12.3978	4.59114e-06
2	0	0	1	1	107.34	-0.883443	-0.883805	-0.00561417	2	-0.0036936	39	12.7178	4.96183e-06
2	0	0	1	1	107.66	-0.891442	-0.89179	-0.0058681	2	-0.00369562	39	13.0378	5.23311e-06
2	0	0	0	1	107.98	-0.89944	-0.899794	-0.00639819	2	-0.00369778	39	13.3576	5.75706e-06
2	0	0	0	1	108.3	-0.907439	-0.907797	-0.00666309	2	-0.00370006	39	13.6776	6.04873e-06
2	0	0	0	1	108.62	-0.915437	-0.91579	-0.00697699	2	-0.00370248	39	13.9976	6.38945e-06
2	0	0	1	1	108.94	-0.923434	-0.923808	-0.00745061	2	-0.00370501	39	14.3175	6.88293e-06
2	0	0	1	1	109.26	-0.931435	-0.931786	-0.00766232	2	-0.00370765	39	14.6374	7.13964e-06
2	0	0	1	1	109.58	-0.939433	-0.939805	-0.00838132	2	-0.00371043	39	14.9574	7.8768e-06
2	0	0	1	1	109.9	-0.947432	-0.947804	-0.00879502	2	-0.00371336	39	15.2774	8.33595e-06
2	0	0	0	1	110.22	-0.95543	-0.955819	-0.00900038	2	-0.00371642	39	15.5972	8.60273e-06
2	0	0	0	1	110.54	-0.963429	-0.963805	-0.0093936	2	-0.00371959	39	15.9172	9.0536e-06
2	0	0	0	1	110.86	-0.971428	-0.971793	-0.00981617	2	-0.00372289	39	16.2372	9.53928e-06
2	0	0	0	1	111.18	-0.979426	-0.979781	-0.0100791	2	-0.00372628	39	16.5572	9.87528e-06
2	0	0	1	1	111.499	-0.987425	-0.987772	-0.0105151	2	-0.0037298	39	16.877	1.03865e-05
2	0	0	1	1	111.819	-0.995423	-0.995782	-0.0108868	2	-0.00373342	39	17.197	1.08409e-05
2	0	0	1	1	112.139	-1.00342	-1.00379	-0.0111167	2	-0.00373716	39	17.517	1.11588e-05
2	0	0	0	1	112.459	-1.01142	-1.0118	-0.0114508	2	-0.003741	39	17.8368	1.15859e-05
2	0	0	0	1	112.779	-1.01942	-1.01979	-0.0117943	2	-0.00374493	39	18.1568	1.20277e-05
2	0	0	0	1	113.099	-1.02742	-1.0278	-0.0120081	2	-0.00374895	39	18.4768	1.23419e-05
2	0	0	0	1	113.419	-1.03542	-1.03581	-0.0123071	2	-0.00375303	39	18.7968	1.27478e-05
2	0	0	1	1	113.739	-1.04341	-1.04378	-0.0121861	2	-0.00375713	39	19.1166	1.27196e-05
2	0	0	1	1	114.059	-1.05141	-1.05179	-0.0125411	2	-0.00376129	39	19.4366	1.31906e-05
2	0	0	1	1	114.379	-1.05941	-1.05977	-0.0125011	2	-0.00376549	39	19.7566	1.32483e-05
2	0	0	0	1	114.699	-1.06741	-1.06775	-0.012485	2	-0.00376972	39	20.0764	1.33309e-05
2	0	0	0	1	115.019	-1.07541	-1.07576	-0.0127338	2	-0.00377395	39	20.3964	1.36985e-05
2	0	0	0	1	115.339	-1.08341	-1.08376	-0.0129949	2	-0.00377826	39	20.7164	1.40833e-05
2	0	0	0	1	115.659	-1.09141	-1.09176	-0.0129272	2	-0.00378262	39	21.0364	1.41133e-05
2	0	0	1	1	115.979	-1.09941	-1.09977	-0.0130162	2	-0.003787	39	21.3562	1.43149e-05
2	0	0	1	1	116.299	-1.1074	-1.10774	-0.0131897	2	-0.00379143	39	21.6762	1.46107e-05
2	0	0	1	1	116.619	-1.1154	-1.11575	-0.0133931	2	-0.00379591	39	21.9962	1.49434e-05
2	0	0	0	1	116.938	-1.1234	-1.12376	-0.0136219	2	-0.00380043	39	22.316	1.53077e-05
2	0	0	0	1	117.258	-1.1314	-1.13177	-0.0138347	2	-0.00380503	39	22.636	1.56577e-05
2	0	0	0	1	117.578	-1.1394	-1.13977	-0.0138203	2	-0.00380969	39	22.956	1.57519e-05
2	0	0	0	1	117.898	-1.1474	-1.14777	-0.0141461	2	-0.00381441	39	23.276	1.62365e-05
2	0	0	1	1	118.218	-1.1554	-1.15575	-0.0143944	2	-0.00381922	39	23.5958	1.66364e-05
2	0	0	1	1	118.538	-1.16339	-1.16375	-0.0148747	2	-0.00382411	39	23.9158	1.73105e-05
2	0	0	1	1	118.858	-1.17139	-1.17176	-0.0150475	2	-0.00382909	39	24.2358	1.7632e-05
2	0	0	1	1	119.178	-1.17939	-1.17975	-0.0153817	2	-0.00383417	39	24.5557	1.81466e-05
2	0	0	0	1	119.498	-1.18739	-1.18773	-0.0157191	2	-0.00383936	39	24.8756	1.86701e-05
2	0	0	0	1	119.818	-1.19539	-1.19575	-0.0166163	2	-0.00384482	39	25.1956	1.98689e-05
2	0	0	0	1	120.138	-1.20339	-1.20374	-0.0173236	2	-0.00385044	39	25.5156	2.08532e-05
2	0	0	1	1	120.458	-1.21139	-1.21176	-0.0189241	2	-0.0038564	39	25.8354	2.29315e-05
2	0	0	1	1	120.778	-1.21938	-1.21975	-0.0210678	2	-0.00386297	39	26.1554	2.56974e-05
2	0	0	1	1	121.098	-1.22738	-1.22775	-0.0237787	2	-0.00387038	39	26.4754	2.91942e-05
2	0	0	1	1	121.418	-1.23538	-1.23576	-0.0266305	2	-0.00387868	39	26.7954	3.29089e-05
2	0	0	0	1	121.738	-1.24338	-1.24374	-0.0294491	2	-0.00388788	39	27.1152	3.6627e-05
2	0	0	0	1	122.058	-1.25138	-1.25175	-0.0320621	2	-0.00389796	39	27.4352	4.01339e-05
2	0	0	0	1	122.378	-1.25938	-1.25975	-0.0346218	2	-0.00390887	39	27.7552	4.36147e-05
2	0	0	1	1	122.697	-1.26738	-1.26774	-0.0381325	2	-0.00392076	39	28.075	4.83421e-05
2	0	0	1	1	123.017	-1.27537	-1.27573	-0.0420138	2	-0.0039339	39	28.395	5.35983e-05
2	0	0	1	1	123.337	-1.28337	-1.28374	-0.0479572	2	-0.00394844	39	28.715	6.15648e-05
2	0	0	1	1	123.657	-1.29137	-1.29171	-0.0560462	2	-0.0039653	39	29.035	7.23953e-05
2	0	0	0	1	123.977	-1.29937	-1.29973	-0.0675982	2	-0.00398521	39	29.3548	8.78596e-05
2	0	0	0	1	124.297	-1.30737	-1.30773	-0.089048	2	-0.00401012	39	29.6748	0.00011645
2	0	0	0	1	124.617	-1.31537	-1.31572	-0.134921	2	-0.0040451	39	29.9948	0.000177518
2	0	0	1	1	124.937	-1.32337	-1.32372	-0.220387	2	-0.00410043	39	30.3146	0.00029173
2	0	0	1	1	125.257	-1.33136	-1.33174	-0.36207	2	-0.00419193	39	30.6346	0.000482183
2	0	0	1	1	125.577	-1.33936	-1.33972	-0.539498	2	-0.00433597	39	30.9546	0.000722777
2	0	0	1	1	125.897	-1.34736	-1.34774	-0.731686	2	-0.00453882	39	31.2746	0.000986122
2	0	0	0	0	126.145	-1.34646	-1.34683	-0.786144	3	-0.00473246	39	31.5228	0.0010588
2	0	0	0	0	126.465	-1.33846	-1.33883	-0.710768	3	-0.00497299	39	31.8428	0.000951597
2	0	0	0	0	126.785	-1.33046	-1.33083	-0.623563	3	-0.00518716	39	32.1628	0.000829855
2	0	0	0	0	127.105	-1.32247	-1.32283	-0.540988	3	-0.00537354	39	32.4828	0.000715634
2	0	0	1	0	127.425	-1.31447	-1.31481	-0.465005	3	-0.00553369	39	32.8026	0.000611393
2	0	0	1	0	127.745	-1.30647	-1.30682	-0.401074	3	-0.00567157	39	33.1226	0.000524132
2	0	0	1	0	128.065	-1.29847	-1.29881	-0.351962	3	-0.00579178	39	33.4426	0.000457132
2	0	0	0	0	128.385	-1.29047	-1.29083	-0.308233	3	-0.00589711	39	33.7624	0.000397876
2	0	0	0	0	128.705	-1.28247	-1.28284	-0.272989	3	-0.00598968	39	34.0824	0.000350201
2	0	0	0	0	129.025	-1.27447	-1.27484	-0.240493	3	-0.0060714	39	34.4024	0.00030659
2	0	0	0	0	129.345	-1.26648	-1.26684	-0.216444	3	-0.00614403	39	34.7224	0.000274201
2	0	0	1	0	129.665	-1.25848	-1.25885	-0.193421	3	-0.00620907	39	35.0422	0.000243488
2	0	0	1	0	129.985	-1.25048	-1.25085	-0.175795	3	-0.00626777	39	35.3622	0.000219893
2	0	0	1	0	130.305	-1.24248	-1.24286	-0.160403	3	-0.00632129	39	35.6822	0.000199359
2	0	0	0	0	130.624	-1.23448	-1.23487	-0.148138	3	-0.00637041	39	36.002	0.000182932
2	0	0	0	0	130.944	-1.22648	-1.22683	-0.137847	3	-0.00641589	39	36.322	0.000169115
2	0	0	0	0	131.264	-1.21848	-1.21883	-0.128338	3	-0.00645816	39	36.642	0.000156421
2	0	0	0	0	131.584	-1.21049	-1.21083	-0.119527	3	-0.0064975	39	36.962	0.000144727
2	0	0	1	0	131.904	-1.20249	-1.20284	-0.111195	3	-0.00653421	39	37.2818	0.000133749
2	0	0	1	0	132.224	-1.19449	-1.19485	-0.1031	3	-0.0065683	39	37.6018	0.000123189
2	0	0	1	0	132.544	-1.18649	-1.18684	-0.0949977	3	-0.00659977	39	37.9218	0.000112747
2	0	0	0	0	132.864	-1.17849	-1.17885	-0.0868589	3	-0.00662861	39	38.2416	0.000102394
2	0	0	0	0	133.184	-1.17049	-1.17084	-0.0780715	3	-0.00665477	39	38.5616	9.14095e-05
2	0	0	0	0	133.504	-1.16249	-1.16283	-0.0691462	3	-0.00667811	39	38.8816	8.04053e-05
2	0	0	0	0	133.824	-1.1545	-1.15483	-0.0609772	3	-0.00669872	39	39.2016	7.04181e-05
2	0	0	1	0	134.144	-1.1465	-1.14685	-0.053052	3	-0.00671671	39	39.5214	6.0843e-05
2	0	0	1	0	134.464	-1.1385	-1.13885	-0.0459624	3	-0.00673229	39	39.8414	5.23442e-05
2	0	0	1	0	134.784	-1.1305	-1.13085	-0.0396049	3	-0.00674572	39	40.1614	4.4787e-05
2	0	0	1	0	135.104	-1.1225	-1.12283	-0.0341078	3	-0.00675726	39	40.4812	3.82972e-05
2	0	0	0	0	135.424	-1.1145	-1.11483	-0.0292798	3	-0.00676723	39	40.8012	3.26421e-05
2	0	0	0	0	135.744	-1.1065	-1.10683	-0.0253288	3	-0.00677579	39	41.1212	2.80347e-05
2	0	0	0	0	136.064	-1.09851	-1.09884	-0.0214797	3	-0.00678304	39	41.4412	2.36028e-05
2	0	0	1	0	136.383	-1.09051	-1.09085	-0.0174178	3	-0.00678904	39	41.761	1.90002e-05
2	0	0	1	0	136.703	-1.08251	-1.08282	-0.013834	3	-0.00679382	39	42.081	1.49798e-05
2	0	0	1	0	137.023	-1.07451	-1.07486	-0.0101458	3	-0.00679744	39	42.401	1.09053e-05
2	0	0	1	0	137.343	-1.06651	-1.06686	-0.00653736	3	-0.00679988	39	42.721	6.97442e-06
2	0	0	0	0	137.663	-1.05851	-1.05887	-0.00291849	3	-0.00680119	39	43.0408	3.09029e-06
2	0	0	0	0	137.983	-1.05051	-1.05086	0.00141278	3	-0.00680125	39	0.12	-1.48464e-06
2	1	0	0	0	138.303	-1.04252	-1.04287	0.00577774	3	-0.00679991	39	0.44	-6.02545e-06
2	1	0	1	0	138.623	-1.03452	-1.03485	0.010219	3	-0.00679722	39	0.7598	-1.05752e-05
2	1	0	1	0	138.943	-1.02652	-1.02687	0.0139317	3	-0.0067931	39	1.0798	-1.43061e-05
2	1	0	1	0	139.263	-1.01852	-1.01886	0.016742	3	-0.00678799	39	1.3998	-1.70578e-05
2	1	0	1	0	139.583	-1.01052	-1.01088	0.0199739	3	-0.00678189	39	1.7198	-2.01912e-05
2	1	0	0	0	139.903	-1.00252	-1.00287	0.0240828	3	-0.00677464	39	2.0396	-2.41519e-05
2	1	0	0	0	140.223	-0.994524	-0.994911	0.0291495	3	-0.00676591	39	2.3596	-2.90012e-05
2	1	0	0	0	140.543	-0.986525	-0.986866	0.0353628	3	-0.00675533	39	2.6796	-3.48983e-05
2	1	0	1	0	140.863	-0.978526	-0.978886	0.0424077	3	-0.00674268	39	2.9994	-4.15123e-05
2	1	0	1	0	141.183	-0.970528	-0.970864	0.0490944	3	-0.00672782	39	3.3194	-4.7664e-05
2	1	0	1	0	141.503	-0.962529	-0.962857	0.0561687	3	-0.00671075	39	3.6394	-5.40825e-05
2	1	0	1	0	141.823	-0.95453	-0.954884	0.0633373	3	-0.0066914	39	3.9594	-6.04797e-05
2	1	0	0	0	142.142	-0.946532	-0.946857	0.0702491	3	-0.00666983	39	4.2792	-6.65159e-05
2	1	0	0	0	142.462	-0.938533	-0.938888	0.0764652	3	-0.00664615	39	4.5992	-7.17923e-05
2	1	0	0	0	142.782	-0.930535	-0.930879	0.0818389	3	-0.00662057	39	4.9192	-7.61821e-05
2	1	0	1	0	143.102	-0.922536	-0.92288	0.0860236	3	-0.00659352	39	5.239	-7.93894e-05
2	1	0	1	0	143.422	-0.914538	-0.914883	0.0888316	3	-0.0065653	39	5.559	-8.12706e-05
2	1	0	1	0	143.742	-0.906539	-0.906883	0.0902566	3	-0.00653639	39	5.879	-8.18522e-05
2	1	0	1	0	144.062	-0.89854	-0.898908	0.0903852	3	-0.00650729	39	6.199	-8.12479e-05
2	1	0	0	0	144.382	-0.890542	-0.890906	0.0889163	3	-0.00647843	39	6.5188	-7.92161e-05
2	1	0	0	0	144.702	-0.882543	-0.882892	0.0860838	3	-0.0064502	39	6.8388	-7.60026e-05
2	1	0	0	0	145.022	-0.874545	-0.874883	0.0835494	3	-0.00642276	39	7.1588	-7.30959e-05
2	1	0	1	0	145.342	-0.866546	-0.866888	0.0805319	3	-0.00639636	39	7.4786	-6.98122e-05
2	1	0	1	0	145.662	-0.858548	-0.858884	0.0775625	3	-0.00637091	39	7.7986	-6.66172e-05
2	1	0	1	0	145.982	-0.850549	-0.850913	0.0745526	3	-0.00634636	39	8.1186	-6.34378e-05
2	1	0	1	0	146.302	-0.84255	-0.842898	0.0716397	3	-0.00632275	39	8.4386	-6.03849e-05
2	1	0	0	0	146.622	-0.834552	-0.834887	0.0694125	3	-0.00629997	39	8.7584	-5.79516e-05
2	1	0	0	0	146.942	-0.826553	-0.826867	0.067312	3	-0.00627788	39	9.0784	-5.5658e-05
2	1	0	0	0	147.262	-0.818555	-0.818881	0.066307	3	-0.00625629	39	9.3984	-5.42976e-05
2	1	0	1	0	147.581	-0.810558	-0.810875	0.0651948	3	-0.00623506	39	9.7183	-5.28648e-05
2	1	0	1	0	147.901	-0.802557	-0.802887	0.064018	3	-0.00621421	39	10.0382	-5.13992e-05
2	1	0	1	0	148.221	-0.794559	-0.794901	0.0623084	3	-0.00619378	39	10.3582	-4.95291e-05
2	1	0	1	0	148.541	-0.78656	-0.786915	0.0605353	3	-0.00617387	39	10.6782	-4.76361e-05
2	1	0	0	0	148.861	-0.778562	-0.7789	0.0582066	3	-0.00615467	39	10.998	-4.53371e-05
2	1	0	0	0	149.181	-0.770563	-0.77093	0.0553241	3	-0.0061363	39	11.318	-4.2651e-05
2	1	0	0	0	149.501	-0.762564	-0.76294	0.0519685	3	-0.00611894	39	11.638	-3.96488e-05
2	1	0	0	0	149.821	-0.754566	-0.754931	0.0480579	3	-0.00610275	39	11.958	-3.62804e-05
2	1	0	1	0	150.141	-0.746567	-0.746925	0.0439614	3	-0.00608781	39	12.2778	-3.28358e-05
2	1	0	1	0	150.461	-0.738569	-0.7389	0.040092	3	-0.00607413	39	12.5978	-2.9624e-05
2	1	0	1	0	150.781	-0.73057	-0.73093	0.0363408	3	-0.00606167	39	12.9178	-2.65626e-05
2	1	0	0	0	151.101	-0.722571	-0.722925	0.0327387	3	-0.00605043	39	13.2376	-2.36676e-05
2	1	0	0	0	151.421	-0.714573	-0.714918	0.0291696	3	-0.00604036	39	13.5576	-2.08539e-05
2	1	0	0	0	151.741	-0.706574	-0.70692	0.0261299	3	-0.00603132	39	13.8776	-1.84717e-05
2	1	0	0	0	152.061	-0.698576	-0.698914	0.0235779	3	-0.00602313	39	14.1976	-1.64789e-05
2	1	0	1	0	152.381	-0.690577	-0.690893	0.021224	3	-0.00601577	39	14.5174	-1.46635e-05
2	1	0	1	0	152.701	-0.682578	-0.682914	0.0193697	3	-0.00600907	39	14.8374	-1.32278e-05
2	1	0	1	0	153.021	-0.67458	-0.674896	0.0176795	3	-0.00600295	39	15.1574	-1.19318e-05
2	1	0	0	0	153.34	-0.666581	-0.666922	0.0162366	3	-0.00599733	39	15.4772	-1.08286e-05
2	1	0	0	0	153.66	-0.658583	-0.658932	0.0149078	3	-0.00599209	39	15.7972	-9.82325e-06
2	1	0	0	0	153.98	-0.650584	-0.650922	0.0139409	3	-0.00598725	39	16.1172	-9.07445e-06
2	1	0	0	0	154.3	-0.642585	-0.64292	0.0133316	3	-0.00598263	39	16.4372	-8.57115e-06
2	1	0	1	0	154.62	-0.634587	-0.634946	0.0125431	3	-0.00597829	39	16.757	-7.96421e-06
2	1	0	1	0	154.94	-0.626588	-0.626952	0.0119546	3	-0.00597416	39	17.077	-7.49496e-06
2	1	0	1	0	155.26	-0.61859	-0.618942	0.0114265	3	-0.00597019	39	17.397	-7.07232e-06
2	1	0	0	0	155.58	-0.610591	-0.610948	0.0108911	3	-0.00596642	39	17.7168	-6.6539e-06
2	1	0	0	0	155.9	-0.602593	-0.602927	0.0108155	3	-0.00596274	39	18.0368	-6.52099e-06
2	1	0	0	0	156.22	-0.594594	-0.594938	0.0103731	3	-0.00595916	39	18.3568	-6.17135e-06
2	1	0	0	0	156.54	-0.586595	-0.586947	0.010127	3	-0.00595572	39	18.6768	-5.944e-06
2	1	0	1	0	156.86	-0.578597	-0.578942	0.00980833	3	-0.00595231	39	18.9966	-5.67845e-06
2	1	0	1	0	157.18	-0.570598	-0.570929	0.00949293	3	-0.00594899	39	19.3166	-5.41978e-06
2	1	0	1	0	157.5	-0.5626	-0.56294	0.0094722	3	-0.00594574	39	19.6366	-5.33228e-06
2	1	0	1	0	157.82	-0.554599	-0.554936	0.00927984	3	-0.00594254	39	19.9565	-5.14971e-06
2	1	0	0	0	158.14	-0.546602	-0.546937	0.00905306	3	-0.0059394	39	20.2764	-4.95145e-06
2	1	0	0	0	158.46	-0.538604	-0.53894	0.00893736	3	-0.00593634	39	20.5964	-4.8167e-06
2	1	0	0	0	158.78	-0.530605	-0.530968	0.00868947	3	-0.00593333	39	20.9164	-4.61383e-06
2	1	0	1	0	159.099	-0.522607	-0.522944	0.00841053	3	-0.00593038	39	21.2362	-4.39823e-06
2	1	0	1	0	159.419	-0.514608	-0.514963	0.00838126	3	-0.00592744	39	21.5562	-4.31604e-06
2	1	0	1	0	159.739	-0.506609	-0.506969	0.008482	3	-0.00592455	39	21.8762	-4.30011e-06
2	1	0	1	0	160.059	-0.498613	-0.498967	0.00828716	3	-0.0059217	39	22.1961	-4.13502e-06
2	1	0	0	0	160.379	-0.490612	-0.490933	0.00802931	3	-0.00591889	39	22.516	-3.94185e-06
2	1	0	0	0	160.699	-0.482614	-0.482928	0.00788414	3	-0.00591611	39	22.836	-3.80747e-06
2	1	0	0	0	161.019	-0.474615	-0.474962	0.00799846	3	-0.00591336	39	23.156	-3.79896e-06
2	1	0	1	0	161.339	-0.466616	-0.466931	0.00787925	3	-0.00591064	39	23.4758	-3.67907e-06
2	1	0	1	0	161.659	-0.458618	-0.45897	0.00778465	3	-0.00590796	39	23.7958	-3.57292e-06
2	1	0	1	0	161.979	-0.450619	-0.45095	0.00756495	3	-0.0059053	39	24.1158	-3.41142e-06
2	1	0	1	0	162.299	-0.442621	-0.44296	0.00770142	3	-0.00590265	39	24.4358	-3.41142e-06
2	1	0	0	0	162.619	-0.434622	-0.434957	0.00741838	3	-0.00590004	39	24.7556	-3.22667e-06
2	1	0	0	0	162.939	-0.426623	-0.426963	0.00748619	3	-0.00589744	39	25.0756	-3.19633e-06
2	1	0	0	0	163.259	-0.418625	-0.418943	0.00743065	3	-0.00589486	39	25.3956	-3.11302e-06
2	1	0	1	0	163.579	-0.410626	-0.410967	0.00737567	3	-0.0058923	39	25.7154	-3.03116e-06
2	1	0	1	0	163.899	-0.402628	-0.40295	0.00728612	3	-0.00588975	39	26.0354	-2.93594e-06
2	1	0	1	0	164.219	-0.394629	-0.394954	0.00724351	3	-0.0058872	39	26.3554	-2.86085e-06
2	1	0	1	0	164.539	-0.386631	-0.386944	0.00742728	3	-0.00588467	39	26.6754	-2.87394e-06
2	1	0	0	0	164.858	-0.378632	-0.378959	0.00738697	3	-0.00588213	39	26.9952	-2.79936e-06
2	1	0	0	0	165.178	-0.370633	-0.370988	0.00734699	3	-0.0058796	39	27.3152	-2.72564e-06
2	1	0	0	0	165.498	-0.362635	-0.362939	0.00723169	3	-0.00587709	39	27.6352	-2.62466e-06
2	1	0	1	0	165.818	-0.354636	-0.354953	0.00719012	3	-0.00587457	39	27.955	-2.55215e-06
2	1	0	1	0	166.138	-0.346638	-0.346984	0.00722992	3	-0.00587206	39	28.275	-2.50867e-06
2	1	0	1	0	166.458	-0.338639	-0.338975	0.0073813	3	-0.00586957	39	28.595	-2.50207e-06
2	1	0	1	0	166.778	-0.33064	-0.330991	0.00734932	3	-0.00586705	39	28.915	-2.43256e-06
2	1	0	0	0	167.098	-0.322642	-0.322988	0.0073252	3	-0.00586455	39	29.2348	-2.36595e-06
2	1	0	0	0	167.418	-0.314643	-0.314978	0.00728812	3	-0.00586205	39	29.5548	-2.2956e-06
2	1	0	0	0	167.738	-0.306645	-0.306979	0.00724744	3	-0.00585953	39	29.8748	-2.22481e-06
2	1	0	0	0	168.004	-0.299996	-0.300309	0.00682234	3	-0.00585743	39	30.1412	-2.04881e-06
2	1	0	0	0	168.306	-0.307544	-0.307889	0.00513832	3	-0.00585589	39	30.4432	-1.58203e-06
2	1	0	0	0	168.626	-0.315543	-0.315867	0.00455131	3	-0.00585452	39	30.7632	-1.43761e-06
2	1	0	0	0	168.946	-0.323542	-0.323865	0.00408764	3	-0.00585334	39	31.0832	-1.32385e-06
2	1	0	1	0	169.266	-0.33154	-0.331881	0.003625	3	-0.00585227	39	31.403	-1.20307e-06
2	1	0	1	0	169.586	-0.339539	-0.339857	0.00339399	3	-0.00585133	39	31.723	-1.15347e-06
2	1	0	1	0	169.906	-0.347537	-0.347879	0.00310782	3	-0.00585048	39	32.043	-1.08115e-06
2	1	0	0	0	170.04	-0.350887	-0.351225	0.00295375	3	-0.00585015	39	32.1768	-1.03743e-06