File: Fig 3/Fig 3_RRDE-np-Fe2O3_10mvs_disk.mpt
mode	ox/red	error	control changes	Ns changes	counter inc.	Ns	time/s	control/V	Ewe/V	<I>/mA	dQ/C	(Q-Qo)/C	I Range	Q charge/discharge/mA.h	half cycle	Energy charge/W.h	Energy discharge/W.h	Capacitance charge/µF	Capacitance discharge/µF	step time/s	Q discharge/mA.h	Q charge/mA.h	Capacity/mA.h	Efficiency/%	cycle number	P/W
2	0	1	0	0	0	0	0.247	-0.300004	-0.455289	-0.250074	-6.17683e-05	-6.17683e-05	41	-1.71579e-05	0	0.000000000000000E+000	7.81179e-09	0.000000000000000E+000	0.000000000000000E+000	0.247	1.71579e-05	0.000000000000000E+000	1.71579e-05	0.0000000E+000	0.000000000000000E+000	0.000113856
2	1	0	0	0	0	0	1.3854	-0.300004	-0.300183	0.0055525	-3.56803e-05	-3.56803e-05	41	1.07848e-05	2	3.23714e-09	0.000000000000000E+000	1.26975e+06	0.000000000000000E+000	0.9	0.000000000000000E+000	1.07848e-05	1.07848e-05	0.0000000E+000	1	-1.66676e-06
2	1	0	0	0	0	0	2.4854	-0.300004	-0.300167	0.000486947	-3.33843e-05	-3.33843e-05	41	1.14226e-05	2	3.42857e-09	0.000000000000000E+000	2.68968e+06	0.000000000000000E+000	2	0.000000000000000E+000	1.14226e-05	1.14226e-05	0.0000000E+000	1	-1.46166e-07
2	0	0	0	0	0	0	3.5854	-0.300004	-0.300141	-0.000680561	-3.3687e-05	-3.3687e-05	41	-9.69297e-08	3	3.43243e-09	2.90937e-11	978992	6522.96	0.7	9.69297e-08	0.000000000000000E+000	9.69297e-08	0.0000000E+000	1	2.04264e-07
2	0	0	0	0	0	0	4.6854	-0.300004	-0.300099	-0.00119401	-3.47887e-05	-3.47887e-05	41	-4.02964e-07	3	3.43243e-09	1.20951e-10	978992	15182.9	1.8	4.02964e-07	0.000000000000000E+000	4.02964e-07	0.0000000E+000	1	3.58322e-07
2	0	0	0	0	0	0	5.7854	-0.300004	-0.300141	-0.00147313	-3.62815e-05	-3.62815e-05	41	-8.17636e-07	3	3.43243e-09	2.45421e-10	978992	54992.8	2.9	8.17636e-07	0.000000000000000E+000	8.17636e-07	0.0000000E+000	1	4.42147e-07
2	0	0	0	0	0	0	6.8854	-0.300004	-0.300156	-0.00161112	-3.79936e-05	-3.79936e-05	41	-1.2932e-06	3	3.43243e-09	3.88165e-10	978992	121757	4	1.2932e-06	0.000000000000000E+000	1.2932e-06	0.0000000E+000	1	4.83589e-07
2	0	0	0	0	0	0	7.9854	-0.300004	-0.300079	-0.00172366	-3.98309e-05	-3.98309e-05	41	-1.80357e-06	3	3.43243e-09	5.41352e-10	978992	56617.6	5.1	1.80357e-06	0.000000000000000E+000	1.80357e-06	0.0000000E+000	1	5.17236e-07
2	0	0	0	0	0	0	9.0854	-0.300004	-0.30016	-0.00179514	-4.17644e-05	-4.17644e-05	41	-2.34067e-06	3	3.43243e-09	7.02561e-10	978992	245012	6.2	2.34067e-06	0.000000000000000E+000	2.34067e-06	0.0000000E+000	1	5.38829e-07
2	0	0	0	0	0	0	10.1854	-0.300004	-0.300144	-0.00185664	-4.37612e-05	-4.37612e-05	41	-2.89534e-06	3	3.43243e-09	8.69046e-10	978992	209805	7.3	2.89534e-06	0.000000000000000E+000	2.89534e-06	0.0000000E+000	1	5.5726e-07
2	0	0	0	0	0	0	11.2854	-0.300004	-0.300072	-0.00188855	-4.58128e-05	-4.58128e-05	41	-3.46523e-06	3	3.43243e-09	1.0401e-09	978992	101970	8.4	3.46523e-06	0.000000000000000E+000	3.46523e-06	0.0000000E+000	1	5.667e-07
2	0	0	0	0	0	0	12.3854	-0.300004	-0.300118	-0.00189863	-4.78954e-05	-4.78954e-05	41	-4.04371e-06	3	3.43243e-09	1.21373e-09	978992	190434	9.5	4.04371e-06	0.000000000000000E+000	4.04371e-06	0.0000000E+000	1	5.69813e-07
2	0	0	0	0	0	0	13.4854	-0.300004	-0.300133	-0.00193078	-5.00142e-05	-5.00142e-05	41	-4.63227e-06	3	3.43243e-09	1.39039e-09	978992	272690	10.6	4.63227e-06	0.000000000000000E+000	4.63227e-06	0.0000000E+000	1	5.79491e-07
2	0	0	0	0	0	0	14.5854	-0.300004	-0.300144	-0.00195224	-5.21581e-05	-5.21581e-05	41	-5.2278e-06	3	3.43243e-09	1.56914e-09	978992	378823	11.7	5.2278e-06	0.000000000000000E+000	5.2278e-06	0.0000000E+000	1	5.85955e-07
2	0	0	0	0	0	0	15.6854	-0.300004	-0.300125	-0.00199025	-5.43236e-05	-5.43236e-05	41	-5.82932e-06	3	3.43243e-09	1.74968e-09	978992	304962	12.8	5.82932e-06	0.000000000000000E+000	5.82932e-06	0.0000000E+000	1	5.97326e-07
2	0	0	0	0	0	0	16.7854	-0.300004	-0.300156	-0.00200219	-5.6502e-05	-5.6502e-05	41	-6.43445e-06	3	3.43243e-09	1.93131e-09	978992	606283	13.9	6.43445e-06	0.000000000000000E+000	6.43445e-06	0.0000000E+000	1	6.00969e-07
2	0	0	0	0	0	0	17.8854	-0.300004	-0.300133	-0.00198906	-5.86989e-05	-5.86989e-05	41	-7.0447e-06	3	3.43243e-09	2.11448e-09	978992	414501	15	7.0447e-06	0.000000000000000E+000	7.0447e-06	0.0000000E+000	1	5.96983e-07
2	0	0	0	0	0	0	18.9854	-0.300004	-0.300167	-0.00201351	-6.09174e-05	-6.09174e-05	41	-7.66094e-06	3	3.43243e-09	2.29943e-09	978992	1.03052e+06	16.1	7.66094e-06	0.000000000000000E+000	7.66094e-06	0.0000000E+000	1	6.0439e-07
2	0	0	0	0	0	0	20.0854	-0.300004	-0.300106	-0.00202749	-6.31444e-05	-6.31444e-05	41	-8.27956e-06	3	3.43243e-09	2.4851e-09	978992	339030	17.2	8.27956e-06	0.000000000000000E+000	8.27956e-06	0.0000000E+000	1	6.08461e-07
2	0	0	0	0	0	0	21.1854	-0.300004	-0.300198	-0.00205002	-6.53818e-05	-6.53818e-05	41	-8.90105e-06	3	3.43243e-09	2.67164e-09	978992	8.40008e+06	18.3	8.90105e-06	0.000000000000000E+000	8.90105e-06	0.0000000E+000	1	6.15411e-07
2	0	0	0	0	0	0	22.2854	-0.300004	-0.300137	-0.00203742	-6.7627e-05	-6.7627e-05	41	-9.5247e-06	3	3.43243e-09	2.85883e-09	978992	597997	19.4	9.5247e-06	0.000000000000000E+000	9.5247e-06	0.0000000E+000	1	6.11505e-07
2	0	0	0	0	0	0	23.3854	-0.300004	-0.300129	-0.00205018	-6.98766e-05	-6.98766e-05	41	-1.01496e-05	3	3.43243e-09	3.04639e-09	978992	562400	20.5	1.01496e-05	0.000000000000000E+000	1.01496e-05	0.0000000E+000	1	6.15318e-07
2	0	0	0	0	0	0	24.4854	-0.300004	-0.300156	-0.00205428	-7.2137e-05	-7.2137e-05	41	-1.07775e-05	3	3.43243e-09	3.23485e-09	978992	1.01471e+06	21.6	1.07775e-05	0.000000000000000E+000	1.07775e-05	0.0000000E+000	1	6.16604e-07
2	0	0	0	0	0	0	25.5854	-0.300004	-0.300206	-0.00206585	-7.44002e-05	-7.44002e-05	41	-1.14062e-05	3	3.43243e-09	3.42355e-09	978992	3.57875e+06	22.7	1.14062e-05	0.000000000000000E+000	1.14062e-05	0.0000000E+000	1	6.20181e-07
2	0	0	0	0	0	0	26.6854	-0.300004	-0.300152	-0.0020589	-7.66704e-05	-7.66704e-05	41	-1.20368e-05	3	3.43243e-09	3.61284e-09	978992	1.03047e+06	23.8	1.20368e-05	0.000000000000000E+000	1.20368e-05	0.0000000E+000	1	6.17984e-07
2	0	0	0	0	0	0	27.7854	-0.300004	-0.300156	-0.00205891	-7.89394e-05	-7.89394e-05	41	-1.26671e-05	3	3.43243e-09	3.80203e-09	978992	1.19262e+06	24.9	1.26671e-05	0.000000000000000E+000	1.26671e-05	0.0000000E+000	1	6.17995e-07
2	0	0	0	0	0	0	28.8854	-0.300004	-0.300064	-0.00207772	-8.12226e-05	-8.12226e-05	41	-1.33013e-05	3	3.43243e-09	3.99239e-09	978992	368434	26	1.33013e-05	0.000000000000000E+000	1.33013e-05	0.0000000E+000	1	6.23449e-07
2	0	0	0	0	0	0	29.9854	-0.300004	-0.300167	-0.00209009	-8.34979e-05	-8.34979e-05	41	-1.39333e-05	3	3.43243e-09	4.18211e-09	978992	1.87426e+06	27.1	1.39333e-05	0.000000000000000E+000	1.39333e-05	0.0000000E+000	1	6.27375e-07
2	0	0	0	0	0	0	31.0854	-0.300004	-0.300175	-0.00207593	-8.57726e-05	-8.57726e-05	41	-1.45652e-05	3	3.43243e-09	4.37176e-09	978992	2.74479e+06	28.2	1.45652e-05	0.000000000000000E+000	1.45652e-05	0.0000000E+000	1	6.23141e-07
2	0	0	0	0	0	0	32.1854	-0.300004	-0.300183	-0.00207893	-8.80596e-05	-8.80596e-05	41	-1.52005e-05	3	3.43243e-09	4.56245e-09	978992	4.76923e+06	29.3	1.52005e-05	0.000000000000000E+000	1.52005e-05	0.0000000E+000	1	6.24059e-07
2	0	0	0	0	0	0	33.2854	-0.300004	-0.300183	-0.00208093	-9.03468e-05	-9.03468e-05	41	-1.58358e-05	3	3.43243e-09	4.75315e-09	978992	4.96856e+06	30.4	1.58358e-05	0.000000000000000E+000	1.58358e-05	0.0000000E+000	1	6.24658e-07
2	0	0	0	0	0	0	34.3854	-0.300004	-0.300133	-0.00208801	-9.26318e-05	-9.26318e-05	41	-1.64705e-05	3	3.43243e-09	4.94367e-09	978992	969575	31.5	1.64705e-05	0.000000000000000E+000	1.64705e-05	0.0000000E+000	1	6.26682e-07
2	0	0	0	0	0	0	35.4854	-0.300004	-0.300144	-0.00208585	-9.49187e-05	-9.49187e-05	41	-1.71057e-05	3	3.43243e-09	5.13434e-09	978992	1.23879e+06	32.6	1.71057e-05	0.000000000000000E+000	1.71057e-05	0.0000000E+000	1	6.26055e-07
2	0	0	0	0	0	0	36.5854	-0.300004	-0.300164	-0.00205419	-9.72007e-05	-9.72007e-05	41	-1.77396e-05	3	3.43243e-09	5.32462e-09	978992	2.08857e+06	33.7	1.77396e-05	0.000000000000000E+000	1.77396e-05	0.0000000E+000	1	6.16592e-07
2	0	0	0	0	0	0	37.6854	-0.300004	-0.300171	-0.00203507	-9.94828e-05	-9.94828e-05	41	-1.83736e-05	3	3.43243e-09	5.51489e-09	978992	2.8824e+06	34.8	1.83736e-05	0.000000000000000E+000	1.83736e-05	0.0000000E+000	1	6.10869e-07
2	0	0	0	0	0	0	38.7854	-0.300004	-0.300179	-0.00207643	-0.000101785	-0.000101785	41	-1.90131e-05	3	3.43243e-09	5.70685e-09	978992	4.47701e+06	35.9	1.90131e-05	0.000000000000000E+000	1.90131e-05	0.0000000E+000	1	6.233e-07
2	0	0	0	0	0	0	39.8854	-0.300004	-0.300141	-0.00209593	-0.000104071	-0.000104071	41	-1.9648e-05	3	3.43243e-09	5.89743e-09	978992	1.32223e+06	37	1.9648e-05	0.000000000000000E+000	1.9648e-05	0.0000000E+000	1	6.29075e-07
2	0	0	0	0	0	0	40.9854	-0.300004	-0.30016	-0.00208401	-0.000106361	-0.000106361	41	-2.02842e-05	3	3.43243e-09	6.08839e-09	978992	2.12327e+06	38.1	2.02842e-05	0.000000000000000E+000	2.02842e-05	0.0000000E+000	1	6.25537e-07
2	0	0	0	0	0	0	42.0854	-0.300004	-0.300114	-0.00208524	-0.000108659	-0.000108659	41	-2.09226e-05	3	3.43243e-09	6.27998e-09	978992	938493	39.2	2.09226e-05	0.000000000000000E+000	2.09226e-05	0.0000000E+000	1	6.25809e-07
2	0	0	0	0	0	0	43.1854	-0.300004	-0.300148	-0.00207694	-0.000110952	-0.000110952	41	-2.15594e-05	3	3.43243e-09	6.47114e-09	978992	1.6922e+06	40.3	2.15594e-05	0.000000000000000E+000	2.15594e-05	0.0000000E+000	1	6.2339e-07
2	0	0	0	0	0	0	44.2854	-0.300004	-0.300152	-0.00206921	-0.000113243	-0.000113243	41	-2.21958e-05	3	3.43243e-09	6.66212e-09	978992	1.90018e+06	41.4	2.21958e-05	0.000000000000000E+000	2.21958e-05	0.0000000E+000	1	6.21079e-07
2	0	0	0	0	0	0	45.3854	-0.300004	-0.300156	-0.00206023	-0.000115529	-0.000115529	41	-2.28307e-05	3	3.43243e-09	6.85268e-09	978992	2.15121e+06	42.5	2.28307e-05	0.000000000000000E+000	2.28307e-05	0.0000000E+000	1	6.18391e-07
2	0	0	0	0	0	0	46.4854	-0.300004	-0.300114	-0.00207279	-0.000117816	-0.000117816	41	-2.34661e-05	3	3.43243e-09	7.04338e-09	978992	1.05258e+06	43.6	2.34661e-05	0.000000000000000E+000	2.34661e-05	0.0000000E+000	1	6.22074e-07
2	0	0	0	0	0	0	47.5854	-0.300004	-0.30016	-0.00207596	-0.000120098	-0.000120098	41	-2.40999e-05	3	3.43243e-09	7.23363e-09	978992	2.52268e+06	44.7	2.40999e-05	0.000000000000000E+000	2.40999e-05	0.0000000E+000	1	6.2312e-07
2	0	0	0	0	0	0	48.6854	-0.300004	-0.300167	-0.00207699	-0.000122382	-0.000122382	41	-2.47344e-05	3	3.43243e-09	7.42405e-09	978992	3.32718e+06	45.8	2.47344e-05	0.000000000000000E+000	2.47344e-05	0.0000000E+000	1	6.23445e-07
2	0	0	0	0	0	0	49.7854	-0.300004	-0.300118	-0.00207515	-0.000124658	-0.000124658	41	-2.53666e-05	3	3.43243e-09	7.61378e-09	978992	1.19461e+06	46.9	2.53666e-05	0.000000000000000E+000	2.53666e-05	0.0000000E+000	1	6.2279e-07
2	0	0	0	0	0	0	50.8854	-0.300004	-0.300133	-0.0020686	-0.000126932	-0.000126932	41	-2.59982e-05	3	3.43243e-09	7.80335e-09	978992	1.53045e+06	48	2.59982e-05	0.000000000000000E+000	2.59982e-05	0.0000000E+000	1	6.20854e-07
2	0	0	0	0	0	0	51.9854	-0.300004	-0.300114	-0.00206028	-0.000129192	-0.000129192	41	-2.66262e-05	3	3.43243e-09	7.99184e-09	978992	1.19433e+06	49.1	2.66262e-05	0.000000000000000E+000	2.66262e-05	0.0000000E+000	1	6.18318e-07
2	0	0	0	0	0	0	53.0854	-0.300004	-0.300087	-0.00204688	-0.000131451	-0.000131451	41	-2.72535e-05	3	3.43243e-09	8.18012e-09	978992	916514	50.2	2.72535e-05	0.000000000000000E+000	2.72535e-05	0.0000000E+000	1	6.14242e-07
2	0	0	0	0	0	0	54.1854	-0.300004	-0.300114	-0.00203047	-0.000133694	-0.000133694	41	-2.78767e-05	3	3.43243e-09	8.36715e-09	978992	1.24996e+06	51.3	2.78767e-05	0.000000000000000E+000	2.78767e-05	0.0000000E+000	1	6.09372e-07
2	0	0	0	0	0	0	55.2854	-0.300004	-0.30011	-0.00200897	-0.000135917	-0.000135917	41	-2.84941e-05	3	3.43243e-09	8.55244e-09	978992	1.21969e+06	52.4	2.84941e-05	0.000000000000000E+000	2.84941e-05	0.0000000E+000	1	6.02911e-07
2	0	0	0	0	0	0	56.3854	-0.300004	-0.300137	-0.0019789	-0.000138111	-0.000138111	41	-2.91036e-05	3	3.43243e-09	8.73537e-09	978992	1.82723e+06	53.5	2.91036e-05	0.000000000000000E+000	2.91036e-05	0.0000000E+000	1	5.93942e-07
2	0	0	0	0	0	0	57.4854	-0.300004	-0.300125	-0.00195606	-0.000140273	-0.000140273	41	-2.97043e-05	3	3.43243e-09	8.91564e-09	978992	1.55399e+06	54.6	2.97043e-05	0.000000000000000E+000	2.97043e-05	0.0000000E+000	1	5.87063e-07
2	0	0	0	0	0	0	58.5854	-0.300004	-0.30011	-0.0019103	-0.000142392	-0.000142392	41	-3.02927e-05	3	3.43243e-09	9.09224e-09	978992	1.29668e+06	55.7	3.02927e-05	0.000000000000000E+000	3.02927e-05	0.0000000E+000	1	5.73302e-07
2	0	0	0	0	0	0	59.6854	-0.300004	-0.300095	-0.00182236	-0.000144436	-0.000144436	41	-3.08605e-05	3	3.43243e-09	9.26265e-09	978992	1.11779e+06	56.8	3.08605e-05	0.000000000000000E+000	3.08605e-05	0.0000000E+000	1	5.46882e-07
2	0	0	0	0	0	0	60.7854	-0.300004	-0.30011	-0.00169429	-0.000146368	-0.000146368	41	-3.13973e-05	3	3.43243e-09	9.42375e-09	978992	1.34396e+06	57.9	3.13973e-05	0.000000000000000E+000	3.13973e-05	0.0000000E+000	1	5.08472e-07
2	0	0	0	0	0	0	61.8854	-0.300004	-0.300064	-0.00150954	-0.000148125	-0.000148125	41	-3.18853e-05	3	3.43243e-09	9.57022e-09	978992	883197	59	3.18853e-05	0.000000000000000E+000	3.18853e-05	0.0000000E+000	1	4.52957e-07
2	0	0	0	0	0	0	62.9854	-0.300004	-0.300148	-0.00109829	-0.000149572	-0.000149572	41	-3.22873e-05	3	3.43243e-09	9.69085e-09	978992	2.53423e+06	60.1	3.22873e-05	0.000000000000000E+000	3.22873e-05	0.0000000E+000	1	3.29649e-07
2	0	0	0	0	0	0	64.0854	-0.300004	-0.300087	-0.000382978	-0.000150407	-0.000150407	41	-3.25192e-05	3	3.43243e-09	9.76045e-09	978992	1.09359e+06	61.2	3.25192e-05	0.000000000000000E+000	3.25192e-05	0.0000000E+000	1	1.14927e-07
2	1	0	0	0	0	0	65.1854	-0.300004	-0.300087	0.000812696	-0.000150175	-0.000150175	41	8.25402e-08	4	2.4768e-11	0.000000000000000E+000	77290.9	0.000000000000000E+000	0.7	0.000000000000000E+000	8.25402e-08	8.25402e-08	0.0000000E+000	2	-2.4388e-07
2	1	0	0	0	0	0	66.2854	-0.300004	-0.300152	0.00252624	-0.000148305	-0.000148305	41	6.02226e-07	4	1.8073e-10	0.000000000000000E+000	35451.5	0.000000000000000E+000	1.8	0.000000000000000E+000	6.02226e-07	6.02226e-07	0.0000000E+000	2	-7.58257e-07
2	1	0	0	0	0	0	67.3854	-0.300004	-0.300121	0.00472711	-0.000144203	-0.000144203	41	1.74147e-06	4	5.22632e-10	0.000000000000000E+000	205031	0.000000000000000E+000	2.9	0.000000000000000E+000	1.74147e-06	1.74147e-06	0.0000000E+000	2	-1.41871e-06
2	1	0	0	0	0	0	68.4854	-0.300004	-0.300102	0.00700087	-0.000137589	-0.000137589	41	3.57869e-06	4	1.07401e-09	0.000000000000000E+000	1.12284e+06	0.000000000000000E+000	4	0.000000000000000E+000	3.57869e-06	3.57869e-06	0.0000000E+000	2	-2.10098e-06
2	1	0	0	0	0	0	69.5854	-0.300004	-0.300156	0.00921147	-0.000128537	-0.000128537	41	6.09308e-06	4	1.82863e-09	0.000000000000000E+000	337469	0.000000000000000E+000	5.1	0.000000000000000E+000	6.09308e-06	6.09308e-06	0.0000000E+000	2	-2.76488e-06
2	1	0	0	0	0	0	70.6854	-0.300004	-0.300072	0.0102735	-0.000117715	-0.000117715	41	9.09939e-06	4	2.73082e-09	0.000000000000000E+000	1.7121e+06	0.000000000000000E+000	6.2	0.000000000000000E+000	9.09939e-06	9.09939e-06	0.0000000E+000	2	-3.08278e-06
2	1	0	0	0	0	0	71.7854	-0.300004	-0.300106	0.0107535	-0.000106119	-0.000106119	41	1.23203e-05	4	3.69745e-09	0.000000000000000E+000	2.90107e+06	0.000000000000000E+000	7.3	0.000000000000000E+000	1.23203e-05	1.23203e-05	0.0000000E+000	2	-3.22719e-06
2	1	0	0	0	0	0	72.8854	-0.300004	-0.300083	0.0110249	-9.4129e-05	-9.4129e-05	41	1.5651e-05	4	4.69699e-09	0.000000000000000E+000	7.35632e+06	0.000000000000000E+000	8.4	0.000000000000000E+000	1.5651e-05	1.5651e-05	0.0000000E+000	2	-3.3084e-06
2	1	0	0	0	0	0	73.9854	-0.300004	-0.300095	0.0110349	-8.2004e-05	-8.2004e-05	41	1.9019e-05	4	5.70768e-09	0.000000000000000E+000	1.79486e+07	0.000000000000000E+000	9.5	0.000000000000000E+000	1.9019e-05	1.9019e-05	0.0000000E+000	2	-3.31153e-06
2	1	0	0	0	0	0	75.0854	-0.300004	-0.300091	0.0111487	-6.97151e-05	-6.97151e-05	41	2.24326e-05	4	6.73208e-09	0.000000000000000E+000	0.000000000000000E+000	0.000000000000000E+000	10.6	0.000000000000000E+000	2.24326e-05	2.24326e-05	0.0000000E+000	2	-3.34562e-06
2	1	0	0	0	0	0	76.1854	-0.300004	-0.300133	0.0114332	-5.73059e-05	-5.73059e-05	41	2.58796e-05	4	7.76654e-09	0.000000000000000E+000	2.21556e+06	0.000000000000000E+000	11.7	0.000000000000000E+000	2.58796e-05	2.58796e-05	0.0000000E+000	2	-3.43148e-06
2	1	0	0	0	0	0	77.2854	-0.300004	-0.300114	0.0114002	-4.47958e-05	-4.47958e-05	41	2.93546e-05	4	8.80938e-09	0.000000000000000E+000	4.60509e+06	0.000000000000000E+000	12.8	0.000000000000000E+000	2.93546e-05	2.93546e-05	0.0000000E+000	2	-3.42134e-06
2	1	0	0	0	0	0	78.3854	-0.300004	-0.300037	0.0113952	-3.22146e-05	-3.22146e-05	41	3.28494e-05	4	9.85814e-09	0.000000000000000E+000	2.2094e+06	0.000000000000000E+000	13.9	0.000000000000000E+000	3.28494e-05	3.28494e-05	0.0000000E+000	2	-3.41899e-06
2	1	0	0	0	0	0	79.4854	-0.300004	-0.300102	0.0115949	-1.95297e-05	-1.95297e-05	41	3.6373e-05	4	1.09155e-08	0.000000000000000E+000	1.14122e+07	0.000000000000000E+000	15	0.000000000000000E+000	3.6373e-05	3.6373e-05	0.0000000E+000	2	-3.47966e-06
2	1	0	0	0	0	0	80.5854	-0.300004	-0.300167	0.0116239	-6.68925e-06	-6.68925e-06	41	3.99398e-05	4	1.1986e-08	0.000000000000000E+000	1.88092e+06	0.000000000000000E+000	16.1	0.000000000000000E+000	3.99398e-05	3.99398e-05	0.0000000E+000	2	-3.48913e-06
2	1	0	0	0	0	0	81.6854	-0.300004	-0.300129	0.0118483	6.32197e-06	6.32197e-06	41	4.3554e-05	4	1.30708e-08	0.000000000000000E+000	4.10066e+06	0.000000000000000E+000	17.2	0.000000000000000E+000	4.3554e-05	4.3554e-05	0.0000000E+000	2	-3.55603e-06
2	1	0	0	0	0	0	82.7854	-0.300004	-0.300076	0.0120442	1.94139e-05	1.94139e-05	41	4.71907e-05	4	1.41622e-08	0.000000000000000E+000	1.1112e+07	0.000000000000000E+000	18.3	0.000000000000000E+000	4.71907e-05	4.71907e-05	0.0000000E+000	2	-3.61417e-06
2	1	0	0	0	0	0	83.8854	-0.300004	-0.30006	0.0127445	3.29285e-05	3.29285e-05	41	5.09447e-05	4	1.52888e-08	0.000000000000000E+000	5.99797e+06	0.000000000000000E+000	19.4	0.000000000000000E+000	5.09447e-05	5.09447e-05	0.0000000E+000	2	-3.82413e-06
2	1	0	0	0	0	0	84.9854	-0.300004	-0.300072	0.0136995	4.78854e-05	4.78854e-05	41	5.50994e-05	4	1.65357e-08	0.000000000000000E+000	1.03673e+07	0.000000000000000E+000	20.5	0.000000000000000E+000	5.50994e-05	5.50994e-05	0.0000000E+000	2	-4.11085e-06
2	1	0	0	0	0	0	86.0854	-0.300004	-0.300106	0.00722245	5.93782e-05	5.93782e-05	41	5.82919e-05	4	1.74937e-08	0.000000000000000E+000	1.3726e+07	0.000000000000000E+000	21.6	0.000000000000000E+000	5.82919e-05	5.82919e-05	0.0000000E+000	2	-2.1675e-06
2	1	0	0	0	0	0	87.1854	-0.300004	-0.300102	0.00252708	6.41982e-05	6.41982e-05	41	5.96307e-05	4	1.78955e-08	0.000000000000000E+000	1.87095e+07	0.000000000000000E+000	22.7	0.000000000000000E+000	5.96307e-05	5.96307e-05	0.0000000E+000	2	-7.58381e-07
2	1	0	0	0	0	0	88.2854	-0.300004	-0.300072	0.00034265	6.54947e-05	6.54947e-05	41	5.99909e-05	4	1.80036e-08	0.000000000000000E+000	1.12876e+07	0.000000000000000E+000	23.8	0.000000000000000E+000	5.99909e-05	5.99909e-05	0.0000000E+000	2	-1.0282e-07
2	0	0	0	0	0	0	89.3854	-0.300004	-0.30011	-0.000604242	6.52524e-05	6.52524e-05	41	-7.85117e-08	5	1.8007e-08	2.35633e-11	2.82574e+06	14772.4	0.7	7.85117e-08	0.000000000000000E+000	7.85117e-08	0.0000000E+000	2	1.81339e-07
2	0	0	0	0	0	0	90.4854	-0.300004	-0.300087	-0.00106094	6.4282e-05	6.4282e-05	41	-3.48085e-07	5	1.8007e-08	1.04461e-10	2.82574e+06	29799.6	1.8	3.48085e-07	0.000000000000000E+000	3.48085e-07	0.0000000E+000	2	3.18376e-07
2	0	0	0	0	0	0	91.5854	-0.300004	-0.300091	-0.0013193	6.2948e-05	6.2948e-05	41	-7.18627e-07	5	1.8007e-08	2.15664e-10	2.82574e+06	67659.6	2.9	7.18627e-07	0.000000000000000E+000	7.18627e-07	0.0000000E+000	2	3.95909e-07
2	0	0	0	0	0	0	92.6854	-0.300004	-0.300152	-0.00145495	6.14097e-05	6.14097e-05	41	-1.14593e-06	5	1.8007e-08	3.43907e-10	2.82574e+06	180005	4	1.14593e-06	0.000000000000000E+000	1.14593e-06	0.0000000E+000	2	4.36707e-07
2	0	0	0	0	0	0	93.7854	-0.300004	-0.300164	-0.0015452	5.97519e-05	5.97519e-05	41	-1.60644e-06	5	1.8007e-08	4.82116e-10	2.82574e+06	168156	5.1	1.60644e-06	0.000000000000000E+000	1.60644e-06	0.0000000E+000	2	4.63811e-07
2	0	0	0	0	0	0	94.8854	-0.300004	-0.300118	-0.00155956	5.80437e-05	5.80437e-05	41	-2.08095e-06	5	1.8007e-08	6.24534e-10	2.82574e+06	652910	6.2	2.08095e-06	0.000000000000000E+000	2.08095e-06	0.0000000E+000	2	4.68052e-07
2	0	0	0	0	0	0	95.9854	-0.300004	-0.300106	-0.00157085	5.63194e-05	5.63194e-05	41	-2.55992e-06	5	1.8007e-08	7.68289e-10	2.82574e+06	401595	7.3	2.55992e-06	0.000000000000000E+000	2.55992e-06	0.0000000E+000	2	4.71421e-07
2	0	0	0	0	0	0	97.0854	-0.300004	-0.300099	-0.00156984	5.45922e-05	5.45922e-05	41	-3.03969e-06	5	1.8007e-08	9.1227e-10	2.82574e+06	357529	8.4	3.03969e-06	0.000000000000000E+000	3.03969e-06	0.0000000E+000	2	4.71108e-07
2	0	0	0	0	0	0	98.1854	-0.300004	-0.300133	-0.00158584	5.2856e-05	5.2856e-05	41	-3.52197e-06	5	1.8007e-08	1.05701e-09	2.82574e+06	3.32374e+06	9.5	3.52197e-06	0.000000000000000E+000	3.52197e-06	0.0000000E+000	2	4.75962e-07
2	0	0	0	0	0	0	99.2854	-0.300004	-0.300125	-0.00150326	5.11724e-05	5.11724e-05	41	-3.98963e-06	5	1.8007e-08	1.19736e-09	2.82574e+06	3.76509e+06	10.6	3.98963e-06	0.000000000000000E+000	3.98963e-06	0.0000000E+000	2	4.51167e-07
2	0	0	0	0	0	0	100.385	-0.300004	-0.300106	-0.00134553	4.96361e-05	4.96361e-05	41	-4.41638e-06	5	1.8007e-08	1.32544e-09	2.82574e+06	692833	11.7	4.41638e-06	0.000000000000000E+000	4.41638e-06	0.0000000E+000	2	4.03801e-07
2	0	0	0	0	0	0	101.485	-0.300004	-0.300106	-0.00136014	4.81779e-05	4.81779e-05	41	-4.82144e-06	5	1.8007e-08	1.447e-09	2.82574e+06	756378	12.8	4.82144e-06	0.000000000000000E+000	4.82144e-06	0.0000000E+000	2	4.08186e-07
2	0	0	0	0	0	0	102.585	-0.300004	-0.300129	-0.00148777	4.65892e-05	4.65892e-05	41	-5.26274e-06	5	1.8007e-08	1.57944e-09	2.82574e+06	0.000000000000000E+000	13.9	5.26274e-06	0.000000000000000E+000	5.26274e-06	0.0000000E+000	2	4.46523e-07
2	0	0	0	0	0	0	103.685	-0.300004	-0.30011	-0.00157294	4.48834e-05	4.48834e-05	41	-5.73659e-06	5	1.8007e-08	1.72165e-09	2.82574e+06	1.07937e+06	15	5.73659e-06	0.000000000000000E+000	5.73659e-06	0.0000000E+000	2	4.72054e-07
2	0	0	0	0	0	0	104.785	-0.300004	-0.300121	-0.00169734	4.30759e-05	4.30759e-05	41	-6.23866e-06	5	1.8007e-08	1.87234e-09	2.82574e+06	2.93231e+06	16.1	6.23866e-06	0.000000000000000E+000	6.23866e-06	0.0000000E+000	2	5.09409e-07
2	0	0	0	0	0	0	105.885	-0.300004	-0.300125	-0.00183019	4.11134e-05	4.11134e-05	41	-6.7838e-06	5	1.8007e-08	2.03594e-09	2.82574e+06	6.35237e+06	17.2	6.7838e-06	0.000000000000000E+000	6.7838e-06	0.0000000E+000	2	5.49286e-07
2	0	0	0	0	0	0	106.985	-0.300004	-0.300106	-0.00185304	3.91088e-05	3.91088e-05	41	-7.34063e-06	5	1.8007e-08	2.20305e-09	2.82574e+06	1.15158e+06	18.3	7.34063e-06	0.000000000000000E+000	7.34063e-06	0.0000000E+000	2	5.5611e-07
2	0	0	0	0	0	0	108.085	-0.300004	-0.300087	-0.00189105	3.70857e-05	3.70857e-05	41	-7.90261e-06	5	1.8007e-08	2.3717e-09	2.82574e+06	676064	19.4	7.90261e-06	0.000000000000000E+000	7.90261e-06	0.0000000E+000	2	5.67479e-07
2	0	0	0	0	0	0	109.185	-0.300004	-0.300079	-0.00187735	3.50171e-05	3.50171e-05	41	-8.47723e-06	5	1.8007e-08	2.54415e-09	2.82574e+06	613918	20.5	8.47723e-06	0.000000000000000E+000	8.47723e-06	0.0000000E+000	2	5.63353e-07
2	0	0	0	0	0	0	110.285	-0.300004	-0.300095	-0.00193692	3.29359e-05	3.29359e-05	41	-9.05533e-06	5	1.8007e-08	2.71765e-09	2.82574e+06	947054	21.6	9.05533e-06	0.000000000000000E+000	9.05533e-06	0.0000000E+000	2	5.8126e-07
2	0	0	0	0	0	0	111.385	-0.300004	-0.300095	-0.00194116	3.08233e-05	3.08233e-05	41	-9.64217e-06	5	1.8007e-08	2.89378e-09	2.82574e+06	1.00843e+06	22.7	9.64217e-06	0.000000000000000E+000	9.64217e-06	0.0000000E+000	2	5.82533e-07
2	0	0	0	0	0	0	112.485	-0.300004	-0.300125	-0.00192993	2.86848e-05	2.86848e-05	41	-1.02362e-05	5	1.8007e-08	3.07206e-09	2.82574e+06	9.58521e+06	23.8	1.02362e-05	0.000000000000000E+000	1.02362e-05	0.0000000E+000	2	5.79222e-07
2	0	0	0	0	0	0	113.585	-0.300004	-0.300099	-0.00199764	2.65321e-05	2.65321e-05	41	-1.08342e-05	5	1.8007e-08	3.25152e-09	2.82574e+06	1.27556e+06	24.9	1.08342e-05	0.000000000000000E+000	1.08342e-05	0.0000000E+000	2	5.99489e-07
2	0	0	0	0	0	0	114.685	-0.300004	-0.300099	-0.00202106	2.43318e-05	2.43318e-05	41	-1.14454e-05	5	1.8007e-08	3.43495e-09	2.82574e+06	1.34621e+06	26	1.14454e-05	0.000000000000000E+000	1.14454e-05	0.0000000E+000	2	6.06517e-07
2	0	0	0	0	0	0	115.785	-0.300004	-0.300125	-0.00200402	2.21384e-05	2.21384e-05	41	-1.20546e-05	5	1.8007e-08	3.61781e-09	2.82574e+06	1.13762e+07	27.1	1.20546e-05	0.000000000000000E+000	1.20546e-05	0.0000000E+000	2	6.01456e-07
2	0	0	0	0	0	0	116.885	-0.300004	-0.300129	-0.00199609	1.99459e-05	1.99459e-05	41	-1.26637e-05	5	1.8007e-08	3.8006e-09	2.82574e+06	0.000000000000000E+000	28.2	1.26637e-05	0.000000000000000E+000	1.26637e-05	0.0000000E+000	2	5.99085e-07
2	0	0	0	0	0	0	117.985	-0.300004	-0.300171	-0.00195545	1.77673e-05	1.77673e-05	41	-1.32688e-05	5	1.8007e-08	3.98223e-09	2.82574e+06	1.13675e+06	29.3	1.32688e-05	0.000000000000000E+000	1.32688e-05	0.0000000E+000	2	5.86969e-07
2	0	0	0	0	0	0	119.085	-0.300004	-0.300118	-0.00196853	1.55907e-05	1.55907e-05	41	-1.38734e-05	5	1.8007e-08	4.16368e-09	2.82574e+06	4.35287e+06	30.4	1.38734e-05	0.000000000000000E+000	1.38734e-05	0.0000000E+000	2	5.90791e-07
2	0	0	0	0	0	0	120.185	-0.300004	-0.300144	-0.00196243	1.34159e-05	1.34159e-05	41	-1.44775e-05	5	1.8007e-08	4.34499e-09	2.82574e+06	3.40902e+06	31.5	1.44775e-05	0.000000000000000E+000	1.44775e-05	0.0000000E+000	2	5.89012e-07
2	0	0	0	0	0	0	121.285	-0.300004	-0.300091	-0.00195184	1.1259e-05	1.1259e-05	41	-1.50767e-05	5	1.8007e-08	4.5248e-09	2.82574e+06	1.41949e+06	32.6	1.50767e-05	0.000000000000000E+000	1.50767e-05	0.0000000E+000	2	5.85729e-07
2	0	0	0	0	0	0	122.385	-0.300004	-0.300156	-0.00198359	9.08476e-06	9.08476e-06	41	-1.56806e-05	5	1.8007e-08	4.70605e-09	2.82574e+06	2.10931e+06	33.7	1.56806e-05	0.000000000000000E+000	1.56806e-05	0.0000000E+000	2	5.95385e-07
2	0	0	0	0	0	0	123.485	-0.300004	-0.300095	-0.0020116	6.88421e-06	6.88421e-06	41	-1.62919e-05	5	1.8007e-08	4.8895e-09	2.82574e+06	1.70389e+06	34.8	1.62919e-05	0.000000000000000E+000	1.62919e-05	0.0000000E+000	2	6.03671e-07
2	0	0	0	0	0	0	124.585	-0.300004	-0.30011	-0.00199013	4.65236e-06	4.65236e-06	41	-1.69119e-05	5	1.8007e-08	5.07556e-09	2.82574e+06	3.18206e+06	35.9	1.69119e-05	0.000000000000000E+000	1.69119e-05	0.0000000E+000	2	5.97259e-07
2	0	0	0	0	0	0	125.685	-0.300004	-0.300076	-0.00195358	2.4852e-06	2.4852e-06	41	-1.75139e-05	5	1.8007e-08	5.25622e-09	2.82574e+06	1.17795e+06	37	1.75139e-05	0.000000000000000E+000	1.75139e-05	0.0000000E+000	2	5.86223e-07
2	0	0	0	0	0	0	126.785	-0.300004	-0.300102	-0.00195985	3.22966e-07	3.22966e-07	41	-1.81145e-05	5	1.8007e-08	5.43647e-09	2.82574e+06	2.4367e+06	38.1	1.81145e-05	0.000000000000000E+000	1.81145e-05	0.0000000E+000	2	5.88155e-07
2	0	0	0	0	0	0	127.885	-0.300004	-0.300114	-0.00197347	-1.83314e-06	-1.83314e-06	41	-1.87134e-05	5	1.8007e-08	5.61621e-09	2.82574e+06	4.40644e+06	39.2	1.87134e-05	0.000000000000000E+000	1.87134e-05	0.0000000E+000	2	5.92265e-07
2	0	0	0	0	0	0	128.985	-0.300004	-0.300121	-0.00198837	-3.99949e-06	-3.99949e-06	41	-1.93152e-05	5	1.8007e-08	5.7968e-09	2.82574e+06	9.07857e+06	40.3	1.93152e-05	0.000000000000000E+000	1.93152e-05	0.0000000E+000	2	5.96753e-07
2	0	0	0	0	0	0	130.085	-0.300004	-0.300137	-0.00197504	-6.17563e-06	-6.17563e-06	41	-1.99196e-05	5	1.8007e-08	5.97821e-09	2.82574e+06	9.39927e+06	41.4	1.99196e-05	0.000000000000000E+000	1.99196e-05	0.0000000E+000	2	5.92781e-07
2	0	0	0	0	0	0	131.185	-0.300004	-0.300137	-0.00199861	-8.36631e-06	-8.36631e-06	41	-2.05282e-05	5	1.8007e-08	6.16084e-09	2.82574e+06	9.6864e+06	42.5	2.05282e-05	0.000000000000000E+000	2.05282e-05	0.0000000E+000	2	5.99856e-07
2	0	0	0	0	0	0	132.285	-0.300004	-0.300125	-0.00200455	-1.05676e-05	-1.05676e-05	41	-2.11396e-05	5	1.8007e-08	6.34435e-09	2.82574e+06	1.97952e+07	43.6	2.11396e-05	0.000000000000000E+000	2.11396e-05	0.0000000E+000	2	6.01616e-07
2	0	0	0	0	0	0	133.385	-0.300004	-0.300079	-0.0020051	-1.27636e-05	-1.27636e-05	41	-2.17496e-05	5	1.8007e-08	6.52741e-09	2.82574e+06	1.5751e+06	44.7	2.17496e-05	0.000000000000000E+000	2.17496e-05	0.0000000E+000	2	6.01691e-07
2	0	0	0	0	0	0	134.485	-0.300004	-0.300118	-0.0019887	-1.49553e-05	-1.49553e-05	41	-2.23584e-05	5	1.8007e-08	6.71012e-09	2.82574e+06	7.01508e+06	45.8	2.23584e-05	0.000000000000000E+000	2.23584e-05	0.0000000E+000	2	5.96845e-07
2	0	0	0	0	0	0	135.585	-0.300004	-0.300114	-0.00189925	-1.71004e-05	-1.71004e-05	41	-2.29543e-05	5	1.8007e-08	6.88895e-09	2.82574e+06	5.39453e+06	46.9	2.29543e-05	0.000000000000000E+000	2.29543e-05	0.0000000E+000	2	5.6999e-07
2	0	0	0	0	0	0	136.685	-0.300004	-0.300125	-0.00165412	-1.9058e-05	-1.9058e-05	41	-2.34981e-05	5	1.8007e-08	7.05216e-09	2.82574e+06	2.20037e+07	48	2.34981e-05	0.000000000000000E+000	2.34981e-05	0.0000000E+000	2	4.96443e-07
2	0	0	0	0	0	0	137.785	-0.300004	-0.300144	-0.00107891	-2.05352e-05	-2.05352e-05	41	-2.39084e-05	5	1.8007e-08	7.17531e-09	2.82574e+06	5.62971e+06	49.1	2.39084e-05	0.000000000000000E+000	2.39084e-05	0.0000000E+000	2	3.2383e-07
2	0	0	0	0	0	0	138.885	-0.300004	-0.300087	-0.000438003	-2.13244e-05	-2.13244e-05	41	-2.41276e-05	5	1.8007e-08	7.2411e-09	2.82574e+06	2.06557e+06	50.2	2.41276e-05	0.000000000000000E+000	2.41276e-05	0.0000000E+000	2	1.31439e-07
2	0	0	0	0	0	0	139.985	-0.300004	-0.300121	0.00018467	-2.14094e-05	-2.14094e-05	41	1.11885e-08	6	3.35797e-12	0.000000000000000E+000	10558.8	0.000000000000000E+000	0.3	0.000000000000000E+000	1.11885e-08	1.11885e-08	0.0000000E+000	3	-5.54233e-08
2	1	0	0	0	0	0	141.085	-0.300004	-0.300137	0.000860761	-2.07852e-05	-2.07852e-05	41	1.84559e-07	6	5.53922e-11	0.000000000000000E+000	34780	0.000000000000000E+000	1.4	0.000000000000000E+000	1.84559e-07	1.84559e-07	0.0000000E+000	3	-2.58346e-07
2	1	0	0	0	0	0	142.185	-0.300004	-0.300118	0.00155799	-1.94225e-05	-1.94225e-05	41	5.63097e-07	6	1.68998e-10	0.000000000000000E+000	0.000000000000000E+000	0.000000000000000E+000	2.5	0.000000000000000E+000	5.63097e-07	5.63097e-07	0.0000000E+000	3	-4.67581e-07
2	1	0	0	0	0	0	143.285	-0.300004	-0.300121	0.00220154	-1.72891e-05	-1.72891e-05	41	1.1557e-06	6	3.46853e-10	0.000000000000000E+000	1.09066e+06	0.000000000000000E+000	3.6	0.000000000000000E+000	1.1557e-06	1.1557e-06	0.0000000E+000	3	-6.6073e-07
2	1	0	0	0	0	0	144.385	-0.300004	-0.300121	0.00321074	-1.42706e-05	-1.42706e-05	41	1.99417e-06	6	5.98504e-10	0.000000000000000E+000	1.88194e+06	0.000000000000000E+000	4.7	0.000000000000000E+000	1.99417e-06	1.99417e-06	0.0000000E+000	3	-9.63612e-07
2	1	0	0	0	0	0	145.485	-0.300004	-0.300156	0.00418448	-1.02203e-05	-1.02203e-05	41	3.11926e-06	6	9.36176e-10	0.000000000000000E+000	293682	0.000000000000000E+000	5.8	0.000000000000000E+000	3.11926e-06	3.11926e-06	0.0000000E+000	3	-1.256e-06
2	1	0	0	0	0	0	146.585	-0.300004	-0.300083	0.00551961	-4.78301e-06	-4.78301e-06	41	4.62962e-06	6	1.38943e-09	0.000000000000000E+000	484190	0.000000000000000E+000	6.9	0.000000000000000E+000	4.62962e-06	4.62962e-06	0.0000000E+000	3	-1.65634e-06
2	1	0	0	0	0	0	147.685	-0.300004	-0.300152	0.00688239	2.06291e-06	2.06291e-06	41	6.53127e-06	6	1.96016e-09	0.000000000000000E+000	683666	0.000000000000000E+000	8	0.000000000000000E+000	6.53127e-06	6.53127e-06	0.0000000E+000	3	-2.06576e-06
2	1	0	0	0	0	0	148.785	-0.300004	-0.300148	0.00821749	1.0452e-05	1.0452e-05	41	8.86157e-06	6	2.65955e-09	0.000000000000000E+000	1.04332e+06	0.000000000000000E+000	9.1	0.000000000000000E+000	8.86157e-06	8.86157e-06	0.0000000E+000	3	-2.46646e-06
2	1	0	0	0	0	0	149.885	-0.300004	-0.300133	0.0091678	2.02297e-05	2.02297e-05	41	1.15776e-05	6	3.47468e-09	0.000000000000000E+000	2.72617e+06	0.000000000000000E+000	10.2	0.000000000000000E+000	1.15776e-05	1.15776e-05	0.0000000E+000	3	-2.75156e-06
2	1	0	0	0	0	0	150.985	-0.300004	-0.30011	0.009444	3.05654e-05	3.05654e-05	41	1.44486e-05	6	4.33635e-09	0.000000000000000E+000	6.79119e+06	0.000000000000000E+000	11.3	0.000000000000000E+000	1.44486e-05	1.44486e-05	0.0000000E+000	3	-2.83424e-06
2	1	0	0	0	0	0	152.085	-0.300004	-0.300125	0.00948664	4.10853e-05	4.10853e-05	41	1.73708e-05	6	5.21335e-09	0.000000000000000E+000	8.16468e+06	0.000000000000000E+000	12.4	0.000000000000000E+000	1.73708e-05	1.73708e-05	0.0000000E+000	3	-2.84718e-06
2	1	0	0	0	0	0	153.185	-0.300004	-0.300121	0.00877812	5.09775e-05	5.09775e-05	41	2.01186e-05	6	6.03806e-09	0.000000000000000E+000	1.89863e+07	0.000000000000000E+000	13.5	0.000000000000000E+000	2.01186e-05	2.01186e-05	0.0000000E+000	3	-2.6345e-06
2	1	0	0	0	0	0	154.285	-0.300004	-0.300106	0.0102569	6.0416e-05	6.0416e-05	41	2.27405e-05	6	6.82493e-09	0.000000000000000E+000	7.13495e+06	0.000000000000000E+000	14.6	0.000000000000000E+000	2.27405e-05	2.27405e-05	0.0000000E+000	3	-3.07816e-06
2	1	0	0	0	0	0	155.385	-0.300004	-0.300083	0.00928549	7.15682e-05	7.15682e-05	41	2.58383e-05	6	7.75468e-09	0.000000000000000E+000	2.70231e+06	0.000000000000000E+000	15.7	0.000000000000000E+000	2.58383e-05	2.58383e-05	0.0000000E+000	3	-2.78642e-06
2	1	0	0	0	0	0	156.485	-0.300004	-0.300171	0.00730365	8.06919e-05	8.06919e-05	41	2.83727e-05	6	8.51531e-09	0.000000000000000E+000	1.90936e+06	0.000000000000000E+000	16.8	0.000000000000000E+000	2.83727e-05	2.83727e-05	0.0000000E+000	3	-2.19235e-06
2	1	0	0	0	0	0	157.585	-0.300004	-0.300049	0.00512076	8.73994e-05	8.73994e-05	41	3.02358e-05	6	9.07447e-09	0.000000000000000E+000	1.5818e+06	0.000000000000000E+000	17.9	0.000000000000000E+000	3.02358e-05	3.02358e-05	0.0000000E+000	3	-1.53648e-06
2	1	0	0	0	0	0	158.685	-0.300004	-0.300083	0.0032247	9.18768e-05	9.18768e-05	41	3.14796e-05	6	9.44774e-09	0.000000000000000E+000	3.2923e+06	0.000000000000000E+000	19	0.000000000000000E+000	3.14796e-05	3.14796e-05	0.0000000E+000	3	-9.67678e-07
2	1	0	0	0	0	0	159.785	-0.300004	-0.300144	0.00158041	9.43925e-05	9.43925e-05	41	3.21784e-05	6	9.65746e-09	0.000000000000000E+000	4.32853e+06	0.000000000000000E+000	20.1	0.000000000000000E+000	3.21784e-05	3.21784e-05	0.0000000E+000	3	-4.74351e-07
2	1	0	0	0	0	0	160.885	-0.300004	-0.300121	0.000384325	9.53773e-05	9.53773e-05	41	3.24519e-05	6	9.73956e-09	0.000000000000000E+000	3.06255e+07	0.000000000000000E+000	21.2	0.000000000000000E+000	3.24519e-05	3.24519e-05	0.0000000E+000	3	-1.15344e-07
2	0	0	0	0	0	0	161.985	-0.300004	-0.300144	-0.000486714	9.52479e-05	9.52479e-05	41	-5.19317e-08	7	9.74437e-09	1.55854e-11	1.9113e+06	4445.88	0.6	5.19317e-08	0.000000000000000E+000	5.19317e-08	0.0000000E+000	3	1.46084e-07
2	0	0	0	0	0	0	163.085	-0.300004	-0.300141	-0.00105957	9.43382e-05	9.43382e-05	41	-3.04651e-07	7	9.74437e-09	9.1431e-11	1.9113e+06	28705.6	1.7	3.04651e-07	0.000000000000000E+000	3.04651e-07	0.0000000E+000	3	3.1802e-07
2	0	0	0	0	0	0	164.185	-0.300004	-0.300133	-0.00141672	9.29384e-05	9.29384e-05	41	-6.93478e-07	7	9.74437e-09	2.08129e-10	1.9113e+06	81646.5	2.8	6.93478e-07	0.000000000000000E+000	6.93478e-07	0.0000000E+000	3	4.25204e-07
2	0	0	0	0	0	0	165.285	-0.300004	-0.300144	-0.00164549	9.12329e-05	9.12329e-05	41	-1.16721e-06	7	9.74437e-09	3.50308e-10	1.9113e+06	99925.2	3.9	1.16721e-06	0.000000000000000E+000	1.16721e-06	0.0000000E+000	3	4.93885e-07
2	0	0	0	0	0	0	166.385	-0.300004	-0.300133	-0.00177367	8.93411e-05	8.93411e-05	41	-1.69274e-06	7	9.74437e-09	5.08029e-10	1.9113e+06	199294	5	1.69274e-06	0.000000000000000E+000	1.69274e-06	0.0000000E+000	3	5.32337e-07
2	0	0	0	0	0	0	167.485	-0.300004	-0.300102	-0.00186256	8.73379e-05	8.73379e-05	41	-2.24916e-06	7	9.74437e-09	6.75023e-10	1.9113e+06	0.000000000000000E+000	6.1	2.24916e-06	0.000000000000000E+000	2.24916e-06	0.0000000E+000	3	5.5896e-07
2	0	0	0	0	0	0	168.585	-0.300004	-0.300083	-0.00191977	8.52572e-05	8.52572e-05	41	-2.82713e-06	7	9.74437e-09	8.48476e-10	1.9113e+06	531941	7.2	2.82713e-06	0.000000000000000E+000	2.82713e-06	0.0000000E+000	3	5.76089e-07
2	0	0	0	0	0	0	169.685	-0.300004	-0.30016	-0.00194789	8.31338e-05	8.31338e-05	41	-3.41696e-06	7	9.74437e-09	1.0255e-09	1.9113e+06	214530	8.3	3.41696e-06	0.000000000000000E+000	3.41696e-06	0.0000000E+000	3	5.84677e-07
2	0	0	0	0	0	0	170.785	-0.300004	-0.30016	-0.00198234	8.09731e-05	8.09731e-05	41	-4.01715e-06	7	9.74437e-09	1.20563e-09	1.9113e+06	252212	9.4	4.01715e-06	0.000000000000000E+000	4.01715e-06	0.0000000E+000	3	5.95017e-07
2	0	0	0	0	0	0	171.885	-0.300004	-0.300125	-0.00200094	7.87796e-05	7.87796e-05	41	-4.62648e-06	7	9.74437e-09	1.38849e-09	1.9113e+06	725792	10.5	4.62648e-06	0.000000000000000E+000	4.62648e-06	0.0000000E+000	3	6.00533e-07
2	0	0	0	0	0	0	172.985	-0.300004	-0.30011	-0.00202715	7.65653e-05	7.65653e-05	41	-5.24155e-06	7	9.74437e-09	1.57309e-09	1.9113e+06	2.47327e+06	11.6	5.24155e-06	0.000000000000000E+000	5.24155e-06	0.0000000E+000	3	6.08369e-07
2	0	0	0	0	0	0	174.085	-0.300004	-0.300091	-0.00203763	7.43244e-05	7.43244e-05	41	-5.86403e-06	7	9.74437e-09	1.75992e-09	1.9113e+06	1.83987e+06	12.7	5.86403e-06	0.000000000000000E+000	5.86403e-06	0.0000000E+000	3	6.11475e-07
2	0	0	0	0	0	0	175.185	-0.300004	-0.30011	-0.00205865	7.20775e-05	7.20775e-05	41	-6.48816e-06	7	9.74437e-09	1.94724e-09	1.9113e+06	3.0615e+06	13.8	6.48816e-06	0.000000000000000E+000	6.48816e-06	0.0000000E+000	3	6.17822e-07
2	0	0	0	0	0	0	176.285	-0.300004	-0.300137	-0.00205422	6.9814e-05	6.9814e-05	41	-7.11692e-06	7	9.74437e-09	2.13594e-09	1.9113e+06	744970	14.9	7.11692e-06	0.000000000000000E+000	7.11692e-06	0.0000000E+000	3	6.16547e-07
2	0	0	0	0	0	0	177.385	-0.300004	-0.300133	-0.0020736	6.75499e-05	6.75499e-05	41	-7.74584e-06	7	9.74437e-09	2.3247e-09	1.9113e+06	911956	16	7.74584e-06	0.000000000000000E+000	7.74584e-06	0.0000000E+000	3	6.22355e-07
2	0	0	0	0	0	0	178.485	-0.300004	-0.300129	-0.00207968	6.52672e-05	6.52672e-05	41	-8.37992e-06	7	9.74437e-09	2.515e-09	1.9113e+06	1.12724e+06	17.1	8.37992e-06	0.000000000000000E+000	8.37992e-06	0.0000000E+000	3	6.24174e-07
2	0	0	0	0	0	0	179.585	-0.300004	-0.300095	-0.00210026	6.29652e-05	6.29652e-05	41	-9.01936e-06	7	9.74437e-09	2.70692e-09	1.9113e+06	4.23931e+06	18.2	9.01936e-06	0.000000000000000E+000	9.01936e-06	0.0000000E+000	3	6.30278e-07
2	0	0	0	0	0	0	180.685	-0.300004	-0.300133	-0.00211669	6.06481e-05	6.06481e-05	41	-9.663e-06	7	9.74437e-09	2.90011e-09	1.9113e+06	1.13767e+06	19.3	9.663e-06	0.000000000000000E+000	9.663e-06	0.0000000E+000	3	6.35287e-07
2	0	0	0	0	0	0	181.785	-0.300004	-0.30016	-0.00211865	5.83218e-05	5.83218e-05	41	-1.03092e-05	7	9.74437e-09	3.09405e-09	1.9113e+06	647249	20.4	1.03092e-05	0.000000000000000E+000	1.03092e-05	0.0000000E+000	3	6.35933e-07
2	0	0	0	0	0	0	182.885	-0.300004	-0.300152	-0.00212594	5.59858e-05	5.59858e-05	41	-1.09581e-05	7	9.74437e-09	3.28881e-09	1.9113e+06	794056	21.5	1.09581e-05	0.000000000000000E+000	1.09581e-05	0.0000000E+000	3	6.38104e-07
2	0	0	0	0	0	0	183.985	-0.300004	-0.300095	-0.00212683	5.36447e-05	5.36447e-05	41	-1.16084e-05	7	9.74437e-09	3.48399e-09	1.9113e+06	5.45622e+06	22.6	1.16084e-05	0.000000000000000E+000	1.16084e-05	0.0000000E+000	3	6.3825e-07
2	0	0	0	0	0	0	185.085	-0.300004	-0.300167	-0.00213763	5.12985e-05	5.12985e-05	41	-1.22601e-05	7	9.74437e-09	3.6796e-09	1.9113e+06	679345	23.7	1.22601e-05	0.000000000000000E+000	1.22601e-05	0.0000000E+000	3	6.41647e-07
2	0	0	0	0	0	0	186.185	-0.300004	-0.300121	-0.00214886	4.89387e-05	4.89387e-05	41	-1.29156e-05	7	9.74437e-09	3.87634e-09	1.9113e+06	2.43394e+06	24.8	1.29156e-05	0.000000000000000E+000	1.29156e-05	0.0000000E+000	3	6.4492e-07
2	0	0	0	0	0	0	187.285	-0.300004	-0.300129	-0.00216354	4.65732e-05	4.65732e-05	41	-1.35727e-05	7	9.74437e-09	4.07355e-09	1.9113e+06	1.82779e+06	25.9	1.35727e-05	0.000000000000000E+000	1.35727e-05	0.0000000E+000	3	6.49342e-07
2	0	0	0	0	0	0	188.385	-0.300004	-0.300106	-0.00214442	4.42053e-05	4.42053e-05	41	-1.42304e-05	7	9.74437e-09	4.27094e-09	1.9113e+06	1.34295e+07	27	1.42304e-05	0.000000000000000E+000	1.42304e-05	0.0000000E+000	3	6.43553e-07
2	0	0	0	0	0	0	189.485	-0.300004	-0.300152	-0.0021669	4.18259e-05	4.18259e-05	41	-1.48914e-05	7	9.74437e-09	4.46931e-09	1.9113e+06	1.07908e+06	28.1	1.48914e-05	0.000000000000000E+000	1.48914e-05	0.0000000E+000	3	6.50398e-07
2	0	0	0	0	0	0	190.585	-0.300004	-0.300099	-0.00216528	3.94449e-05	3.94449e-05	41	-1.55528e-05	7	9.74437e-09	4.66781e-09	1.9113e+06	1.45637e+07	29.2	1.55528e-05	0.000000000000000E+000	1.55528e-05	0.0000000E+000	3	6.49797e-07
2	0	0	0	0	0	0	191.685	-0.300004	-0.300118	-0.00216919	3.70614e-05	3.70614e-05	41	-1.62149e-05	7	9.74437e-09	4.86652e-09	1.9113e+06	3.81811e+06	30.3	1.62149e-05	0.000000000000000E+000	1.62149e-05	0.0000000E+000	3	6.51012e-07
2	0	0	0	0	0	0	192.785	-0.300004	-0.300087	-0.00217406	3.46676e-05	3.46676e-05	41	-1.68798e-05	7	9.74437e-09	5.06608e-09	1.9113e+06	3.96695e+06	31.4	1.68798e-05	0.000000000000000E+000	1.68798e-05	0.0000000E+000	3	6.52406e-07
2	0	0	0	0	0	0	193.885	-0.300004	-0.300133	-0.0021765	3.22711e-05	3.22711e-05	41	-1.75455e-05	7	9.74437e-09	5.26586e-09	1.9113e+06	2.06572e+06	32.5	1.75455e-05	0.000000000000000E+000	1.75455e-05	0.0000000E+000	3	6.53238e-07
2	0	0	0	0	0	0	194.985	-0.300004	-0.300118	-0.00218642	2.98686e-05	2.98686e-05	41	-1.82129e-05	7	9.74437e-09	5.46615e-09	1.9113e+06	4.28857e+06	33.6	1.82129e-05	0.000000000000000E+000	1.82129e-05	0.0000000E+000	3	6.56183e-07
2	0	0	0	0	0	0	196.085	-0.300004	-0.300141	-0.00219095	2.74588e-05	2.74588e-05	41	-1.88822e-05	7	9.74437e-09	5.66705e-09	1.9113e+06	1.77917e+06	34.7	1.88822e-05	0.000000000000000E+000	1.88822e-05	0.0000000E+000	3	6.57592e-07
2	0	0	0	0	0	0	197.185	-0.300004	-0.30011	-0.00219721	2.50465e-05	2.50465e-05	41	-1.95523e-05	7	9.74437e-09	5.86815e-09	1.9113e+06	9.22595e+06	35.8	1.95523e-05	0.000000000000000E+000	1.95523e-05	0.0000000E+000	3	6.59405e-07
2	0	0	0	0	0	0	198.285	-0.300004	-0.300144	-0.00219407	2.26319e-05	2.26319e-05	41	-2.02231e-05	7	9.74437e-09	6.06945e-09	1.9113e+06	1.7313e+06	36.9	2.02231e-05	0.000000000000000E+000	2.02231e-05	0.0000000E+000	3	6.58537e-07
2	0	0	0	0	0	0	199.385	-0.300004	-0.300106	-0.00220304	2.02134e-05	2.02134e-05	41	-2.08949e-05	7	9.74437e-09	6.27107e-09	1.9113e+06	1.97189e+07	38	2.08949e-05	0.000000000000000E+000	2.08949e-05	0.0000000E+000	3	6.61145e-07
2	0	0	0	0	0	0	200.485	-0.300004	-0.300125	-0.00220924	1.77928e-05	1.77928e-05	41	-2.15673e-05	7	9.74437e-09	6.47287e-09	1.9113e+06	3.38782e+06	39.1	2.15673e-05	0.000000000000000E+000	2.15673e-05	0.0000000E+000	3	6.63049e-07
2	0	0	0	0	0	0	201.585	-0.300004	-0.300121	-0.00220155	1.53668e-05	1.53668e-05	41	-2.22411e-05	7	9.74437e-09	6.67512e-09	1.9113e+06	4.19133e+06	40.2	2.22411e-05	0.000000000000000E+000	2.22411e-05	0.0000000E+000	3	6.60731e-07
2	0	0	0	0	0	0	202.685	-0.300004	-0.30016	-0.00217811	1.2942e-05	1.2942e-05	41	-2.29147e-05	7	9.74437e-09	6.87728e-09	1.9113e+06	1.43867e+06	41.3	2.29147e-05	0.000000000000000E+000	2.29147e-05	0.0000000E+000	3	6.53781e-07
2	0	0	0	0	0	0	203.785	-0.300004	-0.300144	-0.00223678	1.04981e-05	1.04981e-05	41	-2.35935e-05	7	9.74437e-09	7.08102e-09	1.9113e+06	2.01985e+06	42.4	2.35935e-05	0.000000000000000E+000	2.35935e-05	0.0000000E+000	3	6.71356e-07
2	0	0	0	0	0	0	204.885	-0.300004	-0.300133	-0.00220342	8.06088e-06	8.06088e-06	41	-2.42706e-05	7	9.74437e-09	7.28422e-09	1.9113e+06	2.85749e+06	43.5	2.42706e-05	0.000000000000000E+000	2.42706e-05	0.0000000E+000	3	6.61319e-07
2	0	0	0	0	0	0	205.985	-0.300004	-0.300053	-0.00221429	5.61895e-06	5.61895e-06	41	-2.49489e-05	7	9.74437e-09	7.4878e-09	1.9113e+06	1.80679e+06	44.6	2.49489e-05	0.000000000000000E+000	2.49489e-05	0.0000000E+000	3	6.64404e-07
2	0	0	0	0	0	0	207.085	-0.300004	-0.300079	-0.00221621	3.17765e-06	3.17765e-06	41	-2.5627e-05	7	9.74437e-09	7.69132e-09	1.9113e+06	4.02031e+06	45.7	2.5627e-05	0.000000000000000E+000	2.5627e-05	0.0000000E+000	3	6.65039e-07
2	0	0	0	0	0	0	208.185	-0.300004	-0.300121	-0.00222455	7.34843e-07	7.34843e-07	41	-2.63056e-05	7	9.74437e-09	7.89498e-09	1.9113e+06	4.95726e+06	46.8	2.63056e-05	0.000000000000000E+000	2.63056e-05	0.0000000E+000	3	6.67636e-07
2	0	0	0	0	0	0	209.285	-0.300004	-0.300125	-0.00222893	-1.70897e-06	-1.70897e-06	41	-2.69844e-05	7	9.74437e-09	8.09873e-09	1.9113e+06	4.23876e+06	47.9	2.69844e-05	0.000000000000000E+000	2.69844e-05	0.0000000E+000	3	6.68957e-07
2	0	0	0	0	0	0	210.385	-0.300004	-0.300106	-0.00222329	-4.15315e-06	-4.15315e-06	41	-2.76633e-05	7	9.74437e-09	8.30249e-09	1.9113e+06	2.61064e+07	49	2.76633e-05	0.000000000000000E+000	2.76633e-05	0.0000000E+000	3	6.67223e-07
2	0	0	0	0	0	0	211.485	-0.300004	-0.300114	-0.0022226	-6.59753e-06	-6.59753e-06	41	-2.83423e-05	7	9.74437e-09	8.50627e-09	1.9113e+06	8.89257e+06	50.1	2.83423e-05	0.000000000000000E+000	2.83423e-05	0.0000000E+000	3	6.67032e-07
2	0	0	0	0	0	0	212.585	-0.300004	-0.300141	-0.0022122	-9.04027e-06	-9.04027e-06	41	-2.90209e-05	7	9.74437e-09	8.7099e-09	1.9113e+06	2.73235e+06	51.2	2.90209e-05	0.000000000000000E+000	2.90209e-05	0.0000000E+000	3	6.63971e-07
2	0	0	0	0	0	0	213.685	-0.300004	-0.300118	-0.00223059	-1.14827e-05	-1.14827e-05	41	-2.96993e-05	7	9.74437e-09	8.91351e-09	1.9113e+06	6.99329e+06	52.3	2.96993e-05	0.000000000000000E+000	2.96993e-05	0.0000000E+000	3	6.6944e-07
2	0	0	0	0	0	0	214.785	-0.300004	-0.300102	-0.00222432	-1.39215e-05	-1.39215e-05	41	-3.03768e-05	7	9.74437e-09	9.11683e-09	1.9113e+06	0.000000000000000E+000	53.4	3.03768e-05	0.000000000000000E+000	3.03768e-05	0.0000000E+000	3	6.67525e-07
2	0	0	0	0	0	0	215.885	-0.300004	-0.300106	-0.00220521	-1.63624e-05	-1.63624e-05	41	-3.10548e-05	7	9.74437e-09	9.32032e-09	1.9113e+06	2.9307e+07	54.5	3.10548e-05	0.000000000000000E+000	3.10548e-05	0.0000000E+000	3	6.61796e-07
2	0	0	0	0	0	0	216.985	-0.300004	-0.30011	-0.0022095	-1.87926e-05	-1.87926e-05	41	-3.17299e-05	7	9.74437e-09	9.52292e-09	1.9113e+06	1.4972e+07	55.6	3.17299e-05	0.000000000000000E+000	3.17299e-05	0.0000000E+000	3	6.63094e-07
2	0	0	0	0	0	0	218.085	-0.300004	-0.300118	-0.00221178	-2.12242e-05	-2.12242e-05	41	-3.24053e-05	7	9.74437e-09	9.72563e-09	1.9113e+06	7.63047e+06	56.7	3.24053e-05	0.000000000000000E+000	3.24053e-05	0.0000000E+000	3	6.63794e-07
2	0	0	0	0	0	0	219.185	-0.300004	-0.300087	-0.00221702	-2.36547e-05	-2.36547e-05	41	-3.30805e-05	7	9.74437e-09	9.92826e-09	1.9113e+06	7.77429e+06	57.8	3.30805e-05	0.000000000000000E+000	3.30805e-05	0.0000000E+000	3	6.653e-07
2	0	0	0	0	0	0	220.285	-0.300004	-0.300114	-0.00221336	-2.60884e-05	-2.60884e-05	41	-3.37565e-05	7	9.74437e-09	1.01311e-08	1.9113e+06	1.06189e+07	58.9	3.37565e-05	0.000000000000000E+000	3.37565e-05	0.0000000E+000	3	6.64261e-07
2	0	0	0	0	0	0	221.385	-0.300004	-0.30011	-0.00221491	-2.85134e-05	-2.85134e-05	41	-3.44301e-05	7	9.74437e-09	1.03333e-08	1.9113e+06	1.62461e+07	60	3.44301e-05	0.000000000000000E+000	3.44301e-05	0.0000000E+000	3	6.64715e-07
2	0	0	0	0	0	0	222.485	-0.300004	-0.30016	-0.00220953	-3.09431e-05	-3.09431e-05	41	-3.5105e-05	7	9.74437e-09	1.05359e-08	1.9113e+06	2.20402e+06	61.1	3.5105e-05	0.000000000000000E+000	3.5105e-05	0.0000000E+000	3	6.63213e-07
2	0	0	0	0	0	0	223.585	-0.300004	-0.300091	-0.00220451	-3.33654e-05	-3.33654e-05	41	-3.57779e-05	7	9.74437e-09	1.07378e-08	1.9113e+06	1.12255e+07	62.2	3.57779e-05	0.000000000000000E+000	3.57779e-05	0.0000000E+000	3	6.61554e-07
2	0	0	0	0	0	0	224.685	-0.300004	-0.300133	-0.0022078	-3.57947e-05	-3.57947e-05	41	-3.64527e-05	7	9.74437e-09	1.09403e-08	1.9113e+06	4.29175e+06	63.3	3.64527e-05	0.000000000000000E+000	3.64527e-05	0.0000000E+000	3	6.62634e-07
2	0	0	0	0	0	0	225.785	-0.300004	-0.300099	-0.00220639	-3.82207e-05	-3.82207e-05	41	-3.71266e-05	7	9.74437e-09	1.11426e-08	1.9113e+06	3.47654e+07	64.4	3.71266e-05	0.000000000000000E+000	3.71266e-05	0.0000000E+000	3	6.62136e-07
2	0	0	0	0	0	0	226.885	-0.300004	-0.300148	-0.00219469	-4.06386e-05	-4.06386e-05	41	-3.77982e-05	7	9.74437e-09	1.13442e-08	1.9113e+06	2.96678e+06	65.5	3.77982e-05	0.000000000000000E+000	3.77982e-05	0.0000000E+000	3	6.58734e-07
2	0	0	0	0	0	0	227.985	-0.300004	-0.300152	-0.00220719	-4.306e-05	-4.306e-05	41	-3.84708e-05	7	9.74437e-09	1.1546e-08	1.9113e+06	2.78771e+06	66.6	3.84708e-05	0.000000000000000E+000	3.84708e-05	0.0000000E+000	3	6.62492e-07
2	0	0	0	0	0	0	229.085	-0.300004	-0.300091	-0.0021896	-4.54747e-05	-4.54747e-05	41	-3.91416e-05	7	9.74437e-09	1.17473e-08	1.9113e+06	1.22809e+07	67.7	3.91416e-05	0.000000000000000E+000	3.91416e-05	0.0000000E+000	3	6.57079e-07
2	0	0	0	0	0	0	229.617	-0.300004	-0.300095	-0.00218898	-4.66442e-05	-4.66442e-05	41	-3.94664e-05	7	9.74437e-09	1.18448e-08	1.9113e+06	1.85501e+07	68.2312	3.94664e-05	0.000000000000000E+000	3.94664e-05	121.555	3	6.56902e-07