File: Fig 3/Fig 3_RRDE-np-Fe2O3_10mvs_ring.mpt
mode	ox/red	error	control changes	counter inc.	time/s	control/V	Ewe/V	<I>/mA	cycle number	(Q-Qo)/C	I Range	step time/s	P/W
2	0	0	1	0	0.000000000000000E+000	-0.299976	-0.299944	-0.0754633	1	0.0000000E+000	39	0.000000000000000E+000	2.26348e-05
2	0	0	1	0	0.055	-0.300526	-0.300461	-0.0131596	1	-1.07984e-06	39	0.000000000000000E+000	3.95393e-06
2	0	0	1	0	0.155	-0.301526	-0.301468	-0.00326055	1	-1.88831e-06	39	0.1	9.82953e-07
2	0	0	1	0	0.255	-0.302526	-0.302447	-0.00193466	1	-2.21225e-06	39	0.2	5.85132e-07
2	0	0	1	0	0.355	-0.303526	-0.303465	-0.00108608	1	-2.42592e-06	39	0.3	3.29588e-07
2	0	0	1	0	0.455	-0.304525	-0.30445	-0.000622129	1	-2.57625e-06	39	0.4	1.89407e-07
2	0	0	1	0	0.555	-0.305525	-0.305456	-0.000336023	1	-2.68837e-06	39	0.5	1.0264e-07
2	0	0	1	0	0.655	-0.306525	-0.306453	3.46768e-05	1	-2.76764e-06	39	0.6	-1.06268e-08
2	0	0	1	0	0.755	-0.307525	-0.307451	0.000173558	1	-2.81798e-06	39	0.7	-5.33606e-08
2	0	0	1	0	0.855	-0.308525	-0.308434	0.000265796	1	-2.85705e-06	39	0.8	-8.19804e-08
2	0	0	1	0	0.955	-0.309525	-0.309453	0.000197914	1	-2.89278e-06	39	0.9	-6.1245e-08
2	0	0	1	0	1.055	-0.310524	-0.310444	0.000323734	1	-2.92686e-06	39	1	-1.00501e-07
2	0	0	1	0	1.1549	-0.311525	-0.311468	0.000472044	1	-2.94878e-06	39	1.0999	-1.47027e-07
2	1	0	0	0	1.2548	-0.312524	-0.31245	0.000497736	1	-2.96066e-06	39	1.1998	-1.55518e-07
2	1	0	0	0	1.3548	-0.313524	-0.313451	0.000384294	1	-2.97622e-06	39	1.2998	-1.20457e-07
2	0	0	0	0	1.4548	-0.314524	-0.314445	0.000407299	1	-2.99822e-06	39	1.3998	-1.28073e-07
2	1	0	0	0	1.5548	-0.315524	-0.315463	0.000623819	1	-3.00628e-06	39	1.4998	-1.96792e-07
2	1	0	0	0	1.6548	-0.316523	-0.316461	0.000623274	1	-3.00326e-06	39	0.000000000000000E+000	-1.97242e-07
2	1	0	0	0	1.7548	-0.317523	-0.317464	0.000747384	1	-2.99475e-06	39	0.1	-2.37267e-07
2	1	0	0	0	1.8548	-0.318523	-0.318437	0.000797767	1	-2.97638e-06	39	0.2	-2.54038e-07
2	1	0	0	0	1.9548	-0.319523	-0.319438	0.00072108	1	-2.96045e-06	39	0.3	-2.3034e-07
2	1	0	0	0	2.0548	-0.320523	-0.320449	0.00068075	1	-2.95219e-06	39	0.4	-2.18146e-07
2	1	0	0	0	2.1548	-0.321522	-0.321468	0.000806802	1	-2.93905e-06	39	0.5	-2.59361e-07
2	1	0	1	0	2.2547	-0.322521	-0.322448	0.000775113	1	-2.9209e-06	39	0.5999	-2.49934e-07
2	1	0	1	0	2.3546	-0.323522	-0.323472	0.000670893	1	-2.91154e-06	39	0.6998	-2.17015e-07
2	1	0	1	0	2.4546	-0.324522	-0.324451	0.000806122	1	-2.89768e-06	39	0.7998	-2.61547e-07
2	1	0	1	0	2.5546	-0.325522	-0.325462	0.000841149	1	-2.87269e-06	39	0.8998	-2.73762e-07
2	1	0	1	0	2.6546	-0.326522	-0.326455	0.000762853	1	-2.85102e-06	39	0.9998	-2.49037e-07
2	1	0	1	0	2.7546	-0.327522	-0.327462	0.000844887	1	-2.83052e-06	39	1.0998	-2.76669e-07
2	1	0	1	0	2.8546	-0.328521	-0.328452	0.000881858	1	-2.8038e-06	39	1.1998	-2.89648e-07
2	1	0	1	0	2.9546	-0.329521	-0.329453	0.000783063	1	-2.78493e-06	39	1.2998	-2.57982e-07
2	1	0	1	0	3.0546	-0.330521	-0.330464	0.000871221	1	-2.76552e-06	39	1.3998	-2.87907e-07
2	1	0	1	0	3.1546	-0.331521	-0.331453	0.000795445	1	-2.73827e-06	39	1.4998	-2.63653e-07
2	1	0	1	0	3.2546	-0.332521	-0.332464	0.000706741	1	-2.71963e-06	39	1.5998	-2.34966e-07
2	1	0	1	0	3.3546	-0.33352	-0.333438	0.000903293	1	-2.69894e-06	39	1.6998	-3.01192e-07
2	1	0	1	0	3.4545	-0.334519	-0.334437	0.00085011	1	-2.67255e-06	39	1.7997	-2.84309e-07
2	0	0	0	0	3.5544	-0.33552	-0.335445	0.000865914	1	-2.6505e-06	39	1.8996	-2.90466e-07
2	1	0	0	0	3.6544	-0.33652	-0.336441	0.000944432	1	-2.62436e-06	39	1.9996	-3.17746e-07
2	0	0	0	0	3.7544	-0.33752	-0.337462	0.000726031	1	-2.60279e-06	39	2.0996	-2.45008e-07
2	1	0	0	0	3.8544	-0.33852	-0.338427	0.000786381	1	-2.58751e-06	39	2.1996	-2.66132e-07
2	1	0	0	0	3.9544	-0.339519	-0.339436	0.000985351	1	-2.55964e-06	39	2.2996	-3.34464e-07
2	0	0	0	0	4.0544	-0.340519	-0.34043	0.00100226	1	-2.52368e-06	39	2.3996	-3.412e-07
2	0	0	0	0	4.1544	-0.341519	-0.341427	0.000789211	1	-2.49526e-06	39	2.4996	-2.69458e-07
2	1	0	0	0	4.2544	-0.342519	-0.342426	0.000769684	1	-2.4786e-06	39	2.5996	-2.6356e-07
2	0	0	0	0	4.3544	-0.343519	-0.343427	0.000725807	1	-2.46323e-06	39	2.6996	-2.49262e-07
2	1	0	0	0	4.4544	-0.344519	-0.344437	0.000852041	1	-2.44466e-06	39	2.7996	-2.93475e-07
2	1	0	0	0	4.5544	-0.345518	-0.345442	0.000829611	1	-2.42237e-06	39	2.8996	-2.86582e-07
2	1	0	1	0	4.6543	-0.346518	-0.34646	0.000801044	1	-2.40331e-06	39	2.9995	-2.7753e-07
2	1	0	1	0	4.7542	-0.347518	-0.347448	0.000872394	1	-2.37998e-06	39	3.0994	-3.03112e-07
2	0	0	1	0	4.8542	-0.348518	-0.348436	0.000892502	1	-2.35414e-06	39	3.1994	-3.1098e-07
2	1	0	1	0	4.9542	-0.349518	-0.349445	0.000821393	1	-2.33183e-06	39	3.2994	-2.87032e-07
2	0	0	1	0	5.0542	-0.350518	-0.350449	0.000767921	1	-2.31743e-06	39	3.3994	-2.69118e-07
2	0	0	1	0	5.1542	-0.351517	-0.35146	0.000852043	1	-2.30328e-06	39	3.4994	-2.99459e-07
2	0	0	1	0	5.2542	-0.352517	-0.352456	0.000882292	1	-2.28506e-06	39	3.5994	-3.10969e-07
2	0	0	1	0	5.3542	-0.353517	-0.353451	0.000909196	1	-2.26139e-06	39	3.6994	-3.21357e-07
2	1	0	1	0	5.4542	-0.354517	-0.35443	0.000989679	1	-2.23252e-06	39	3.7994	-3.50772e-07
2	1	0	1	0	5.5542	-0.355517	-0.355459	0.000921389	1	-2.20133e-06	39	3.8994	-3.27516e-07
2	0	0	1	0	5.6542	-0.356517	-0.356455	0.000691332	1	-2.1856e-06	39	3.9994	-2.46428e-07
2	1	0	1	0	5.7542	-0.357516	-0.357439	0.00075558	1	-2.17622e-06	39	4.0994	-2.70074e-07
2	0	0	1	0	5.8541	-0.358516	-0.358445	0.000683674	1	-2.16712e-06	39	4.1993	-2.4506e-07
2	1	0	0	0	5.954	-0.359516	-0.359437	0.000889931	1	-2.14812e-06	39	4.2992	-3.19875e-07
2	1	0	0	0	6.054	-0.360516	-0.360465	0.000739653	1	-2.128e-06	39	4.3992	-2.66619e-07
2	1	0	0	0	6.154	-0.361516	-0.361444	0.000890867	1	-2.10677e-06	39	4.4992	-3.21998e-07
2	1	0	0	0	6.254	-0.362516	-0.362463	0.000847987	1	-2.08433e-06	39	4.5992	-3.07364e-07
2	1	0	0	0	6.354	-0.363515	-0.363433	0.000835491	1	-2.0658e-06	39	4.6992	-3.03645e-07
2	1	0	0	0	6.454	-0.364515	-0.364447	0.000999211	1	-2.04008e-06	39	4.7992	-3.64159e-07
2	1	0	0	0	6.554	-0.365515	-0.365436	0.000835165	1	-2.01229e-06	39	4.8992	-3.05199e-07
2	1	0	0	0	6.654	-0.366515	-0.36644	0.0010346	1	-1.98415e-06	39	4.9992	-3.79118e-07
2	1	0	0	0	6.754	-0.367515	-0.367426	0.000829096	1	-1.95686e-06	39	5.0992	-3.04631e-07
2	1	0	0	0	6.854	-0.368515	-0.368441	0.00091507	1	-1.93701e-06	39	5.1992	-3.37149e-07
2	1	0	0	0	6.954	-0.369514	-0.369449	0.000834444	1	-1.91721e-06	39	5.2992	-3.08285e-07
2	1	0	1	0	7.0539	-0.370514	-0.37046	0.000996845	1	-1.89197e-06	39	5.3991	-3.69291e-07
2	1	0	1	0	7.1538	-0.371514	-0.371468	0.000887047	1	-1.86553e-06	39	5.499	-3.2951e-07
2	1	0	1	0	7.2538	-0.372514	-0.37246	0.000759474	1	-1.85092e-06	39	5.599	-2.82874e-07
2	1	0	1	0	7.3538	-0.373514	-0.373451	0.000748884	1	-1.84181e-06	39	5.699	-2.79671e-07
2	1	0	1	0	7.4538	-0.374514	-0.374456	0.000741317	1	-1.83367e-06	39	5.799	-2.77591e-07
2	1	0	1	0	7.5538	-0.375513	-0.375451	0.000795142	1	-1.82055e-06	39	5.899	-2.98537e-07
2	1	0	1	0	7.6538	-0.376513	-0.376483	0.000827842	1	-1.8033e-06	39	5.999	-3.11668e-07
2	1	0	1	0	7.7538	-0.377513	-0.377444	0.000768417	1	-1.78874e-06	39	6.099	-2.90034e-07
2	1	0	1	0	7.8538	-0.378513	-0.378436	0.000736803	1	-1.77867e-06	39	6.199	-2.78833e-07
2	1	0	1	0	7.9538	-0.379513	-0.379437	0.000793906	1	-1.76459e-06	39	6.299	-3.01237e-07
2	1	0	1	0	8.0538	-0.380513	-0.380454	0.000901955	1	-1.74163e-06	39	6.399	-3.43152e-07
2	1	0	1	0	8.1538	-0.381512	-0.381463	0.000777838	1	-1.72116e-06	39	6.499	-2.96717e-07
2	0	0	1	0	8.2537	-0.382513	-0.382462	0.000819912	1	-1.70499e-06	39	6.5989	-3.13585e-07
2	1	0	0	0	8.3536	-0.383512	-0.383464	0.000728009	1	-1.68768e-06	39	6.6988	-2.79165e-07
2	1	0	0	0	8.4536	-0.384512	-0.384452	0.00102817	1	-1.66267e-06	39	6.7988	-3.95284e-07
2	1	0	0	0	8.5536	-0.385512	-0.385446	0.000961639	1	-1.62793e-06	39	6.8988	-3.7066e-07
2	0	0	0	0	8.6536	-0.386512	-0.386456	0.00103347	1	-1.59139e-06	39	6.9988	-3.99392e-07
2	1	0	0	0	8.7536	-0.387511	-0.387433	0.000796289	1	-1.56716e-06	39	7.0988	-3.08508e-07
2	1	0	0	0	8.8536	-0.388511	-0.388446	0.000944693	1	-1.54414e-06	39	7.1988	-3.66962e-07
2	1	0	0	0	8.9536	-0.389511	-0.389451	0.000893867	1	-1.51761e-06	39	7.2988	-3.48118e-07
2	1	0	0	0	9.0536	-0.390511	-0.390436	0.000923373	1	-1.49619e-06	39	7.3988	-3.60518e-07
2	1	0	0	0	9.1536	-0.391511	-0.391454	0.00093355	1	-1.47379e-06	39	7.4988	-3.65442e-07
2	1	0	0	0	9.2536	-0.392511	-0.392436	0.0010797	1	-1.444e-06	39	7.5988	-4.23712e-07
2	1	0	0	0	9.3536	-0.39351	-0.393443	0.000945649	1	-1.41134e-06	39	7.6988	-3.72059e-07
2	1	0	1	0	9.4535	-0.394511	-0.394451	0.000936333	1	-1.38619e-06	39	7.7987	-3.69338e-07
2	1	0	1	0	9.5534	-0.39551	-0.395463	0.00104368	1	-1.35573e-06	39	7.8986	-4.12735e-07
2	1	0	1	0	9.6534	-0.39651	-0.396448	0.000889679	1	-1.32936e-06	39	7.9986	-3.52712e-07
2	1	0	1	0	9.7534	-0.39751	-0.397439	0.000896064	1	-1.3048e-06	39	8.0986	-3.56131e-07
2	1	0	1	0	9.8534	-0.39851	-0.398452	0.00086191	1	-1.27942e-06	39	8.1986	-3.4343e-07
2	1	0	1	0	9.9534	-0.399509	-0.399454	0.00100035	1	-1.25534e-06	39	8.2986	-3.99594e-07
2	1	0	1	0	10.0534	-0.400509	-0.400452	0.000811318	1	-1.23305e-06	39	8.3986	-3.24894e-07
2	1	0	1	0	10.1534	-0.401509	-0.40145	0.000964932	1	-1.20824e-06	39	8.4986	-3.87372e-07
2	1	0	1	0	10.2534	-0.402509	-0.402462	0.000841445	1	-1.18304e-06	39	8.5986	-3.3865e-07
2	1	0	1	0	10.3534	-0.403509	-0.403453	0.000889022	1	-1.15956e-06	39	8.6986	-3.58679e-07
2	1	0	1	0	10.4534	-0.404509	-0.404455	0.000887095	1	-1.13711e-06	39	8.7986	-3.5879e-07
2	1	0	1	0	10.5533	-0.405507	-0.40546	0.000947137	1	-1.10891e-06	39	8.8985	-3.84026e-07
2	1	0	0	0	10.6532	-0.406508	-0.40646	0.000772105	1	-1.08509e-06	39	8.9984	-3.1383e-07
2	1	0	0	0	10.7532	-0.407508	-0.407436	0.000924756	1	-1.06712e-06	39	9.0984	-3.76779e-07
2	1	0	0	0	10.8532	-0.408508	-0.408468	0.000880612	1	-1.04596e-06	39	9.1984	-3.59702e-07
2	1	0	0	0	10.9532	-0.409508	-0.40946	0.000914522	1	-1.02283e-06	39	9.2984	-3.7446e-07
2	1	0	0	0	11.0532	-0.410508	-0.410476	0.000913014	1	-9.96528e-07	39	9.3984	-3.7477e-07
2	1	0	0	0	11.1532	-0.411507	-0.411461	0.000868854	1	-9.72001e-07	39	9.4984	-3.575e-07
2	1	0	0	0	11.2532	-0.412507	-0.412466	0.000778752	1	-9.52816e-07	39	9.5984	-3.21208e-07
2	1	0	0	0	11.3532	-0.413507	-0.41347	0.000888239	1	-9.32519e-07	39	9.6984	-3.6726e-07
2	1	0	0	0	11.4532	-0.414507	-0.414469	0.000772108	1	-9.16389e-07	39	9.7984	-3.20014e-07
2	1	0	0	0	11.5532	-0.415507	-0.415463	0.000798297	1	-9.03065e-07	39	9.8984	-3.31663e-07
2	1	0	0	0	11.6532	-0.416507	-0.416464	0.000827292	1	-8.84124e-07	39	9.9984	-3.44538e-07
2	1	0	1	0	11.7531	-0.417505	-0.417443	0.000869368	1	-8.6362e-07	39	10.0983	-3.62912e-07
2	1	0	1	0	11.853	-0.418506	-0.418456	0.00077285	1	-8.4329e-07	39	10.1982	-3.23404e-07
2	1	0	1	0	11.953	-0.419506	-0.419453	0.000820648	1	-8.272e-07	39	10.2982	-3.44223e-07
2	1	0	1	0	12.053	-0.420506	-0.420466	0.000833255	1	-8.10568e-07	39	10.3982	-3.50355e-07
2	1	0	1	0	12.153	-0.421506	-0.421465	0.000829981	1	-7.86718e-07	39	10.4982	-3.49808e-07
2	1	0	1	0	12.253	-0.422505	-0.422474	0.000815562	1	-7.66258e-07	39	10.5982	-3.44553e-07
2	1	0	1	0	12.353	-0.423505	-0.423474	0.000827462	1	-7.48004e-07	39	10.6982	-3.50409e-07
2	1	0	1	0	12.453	-0.424505	-0.42446	0.000675682	1	-7.33837e-07	39	10.7982	-2.868e-07
2	1	0	1	0	12.553	-0.425505	-0.425464	0.000642095	1	-7.28541e-07	39	10.8982	-2.73188e-07
2	1	0	1	0	12.653	-0.426505	-0.426463	0.000869345	1	-7.13292e-07	39	10.9982	-3.70743e-07
2	1	0	1	0	12.753	-0.427505	-0.427454	0.000824738	1	-6.92681e-07	39	11.0982	-3.52538e-07
2	1	0	1	0	12.848	-0.428454	-0.4284	0.00083875	1	-6.80956e-07	39	11.1932	-3.59321e-07
2	1	0	1	0	12.89	-0.428954	-0.428896	-0.0024041	1	-6.79362e-07	39	11.2352	1.03111e-06