File: Fig 3/Fig 3_RRDE-np-Fe3O4_100mvs_disk.mpt
mode	ox/red	error	control changes	Ns changes	counter inc.	Ns	time/s	control/V	Ewe/V	<I>/mA	dQ/C	(Q-Qo)/C	I Range	Q charge/discharge/mA.h	half cycle	Energy charge/W.h	Energy discharge/W.h	Capacitance charge/µF	Capacitance discharge/µF	step time/s	Q discharge/mA.h	Q charge/mA.h	Capacity/mA.h	Efficiency/%	cycle number	P/W
2	1	0	1	0	0	0	0.1	-0.300024	-0.300417	0.0465407	4.65407e-06	4.65407e-06	41	1.2928e-06	0	3.88378e-10	0.000000000000000E+000	0.000000000000000E+000	0.000000000000000E+000	0.1	0.000000000000000E+000	1.2928e-06	1.2928e-06	0.0000000E+000	0.000000000000000E+000	-1.39816e-05
2	1	0	1	0	0	0	0.5	-0.300024	-0.300352	0.0117083	1.14538e-05	1.14538e-05	41	3.18161e-06	0	9.55742e-10	0.000000000000000E+000	176134	0.000000000000000E+000	0.5	0.000000000000000E+000	3.18161e-06	3.18161e-06	0.0000000E+000	0.000000000000000E+000	-3.51661e-06
2	1	0	1	0	0	0	0.9	-0.300024	-0.300413	0.0063928	1.4621e-05	1.4621e-05	41	4.06138e-06	0	1.22002e-09	0.000000000000000E+000	3.8328e+06	0.000000000000000E+000	0.9	0.000000000000000E+000	4.06138e-06	4.06138e-06	0.0000000E+000	0.000000000000000E+000	-1.92048e-06
2	1	0	1	0	0	0	1.3	-0.300024	-0.300409	0.00393345	1.65154e-05	1.65154e-05	41	4.58761e-06	0	1.37809e-09	0.000000000000000E+000	2.14793e+06	0.000000000000000E+000	1.3	0.000000000000000E+000	4.58761e-06	4.58761e-06	0.0000000E+000	0.000000000000000E+000	-1.18164e-06
2	1	0	1	0	0	0	1.7	-0.300024	-0.300409	0.00253922	1.77192e-05	1.77192e-05	41	4.922e-06	0	1.47854e-09	0.000000000000000E+000	2.30449e+06	0.000000000000000E+000	1.7	0.000000000000000E+000	4.922e-06	4.922e-06	0.0000000E+000	0.000000000000000E+000	-7.62806e-07
2	1	0	1	0	0	0	2.1	-0.300024	-0.30039	0.00159603	1.84942e-05	1.84942e-05	41	5.13728e-06	0	1.54321e-09	0.000000000000000E+000	690282	0.000000000000000E+000	2.1	0.000000000000000E+000	5.13728e-06	5.13728e-06	0.0000000E+000	0.000000000000000E+000	-4.79433e-07
2	1	0	1	0	0	0	2.5	-0.300024	-0.30039	0.000950865	1.89622e-05	1.89622e-05	41	5.26727e-06	0	1.58225e-09	0.000000000000000E+000	707747	0.000000000000000E+000	2.5	0.000000000000000E+000	5.26727e-06	5.26727e-06	0.0000000E+000	0.000000000000000E+000	-2.8563e-07
2	1	0	1	0	0	0	2.9	-0.300024	-0.30044	0.0003974	1.91998e-05	1.91998e-05	41	5.33328e-06	0	1.60209e-09	0.000000000000000E+000	837762	0.000000000000000E+000	2.9	0.000000000000000E+000	5.33328e-06	5.33328e-06	0.0000000E+000	0.000000000000000E+000	-1.19395e-07
2	1	0	1	0	0	0	3.3	-0.300024	-0.300402	4.48218e-06	1.92563e-05	1.92563e-05	41	5.34897e-06	0	1.6068e-09	0.000000000000000E+000	1.26445e+06	0.000000000000000E+000	3.3	0.000000000000000E+000	5.34897e-06	5.34897e-06	0.0000000E+000	0.000000000000000E+000	-1.34645e-09
2	0	0	1	0	0	0	3.7	-0.300024	-0.300432	-0.000326905	1.91718e-05	1.91718e-05	41	-2.34663e-08	1	1.6068e-09	7.04974e-12	1.26445e+06	1702.49	0.3	2.34663e-08	0.000000000000000E+000	2.34663e-08	0.0000000E+000	0.000000000000000E+000	9.82128e-08
2	0	0	1	0	0	0	4.1	-0.300024	-0.300409	-0.000606325	1.89709e-05	1.89709e-05	41	-7.92643e-08	1	1.6068e-09	2.38105e-11	1.26445e+06	10674.3	0.7	7.92643e-08	0.000000000000000E+000	7.92643e-08	0.0000000E+000	0.000000000000000E+000	1.82146e-07
2	0	0	1	0	0	0	4.5	-0.300024	-0.300375	-0.000826343	1.86727e-05	1.86727e-05	41	-1.62113e-07	1	1.6068e-09	4.86966e-11	1.26445e+06	75029.3	1.1	1.62113e-07	0.000000000000000E+000	1.62113e-07	0.0000000E+000	0.000000000000000E+000	2.48213e-07
2	0	0	1	0	0	0	4.9	-0.300024	-0.300398	-0.00101753	1.82933e-05	1.82933e-05	41	-2.67493e-07	1	1.6068e-09	8.03523e-11	1.26445e+06	63233	1.5	2.67493e-07	0.000000000000000E+000	2.67493e-07	0.0000000E+000	0.000000000000000E+000	3.05665e-07
2	0	0	1	0	0	0	5.3	-0.300024	-0.300386	-0.00117692	1.78465e-05	1.78465e-05	41	-3.91602e-07	1	1.6068e-09	1.17631e-10	1.26445e+06	378432	1.9	3.91602e-07	0.000000000000000E+000	3.91602e-07	0.0000000E+000	0.000000000000000E+000	3.5353e-07
2	0	0	1	0	0	0	5.7	-0.300024	-0.300406	-0.00131656	1.734e-05	1.734e-05	41	-5.32314e-07	1	1.6068e-09	1.59901e-10	1.26445e+06	83616.9	2.3	5.32314e-07	0.000000000000000E+000	5.32314e-07	0.0000000E+000	0.000000000000000E+000	3.95502e-07
2	0	0	1	0	0	0	6.1	-0.300024	-0.30036	-0.00141232	1.67874e-05	1.67874e-05	41	-6.85814e-07	1	1.6068e-09	2.06005e-10	1.26445e+06	107310	2.7	6.85814e-07	0.000000000000000E+000	6.85814e-07	0.0000000E+000	0.000000000000000E+000	4.24204e-07
2	0	0	1	0	0	0	6.5	-0.300024	-0.300333	-0.00143771	1.62128e-05	1.62128e-05	41	-8.45419e-07	1	1.6068e-09	2.53943e-10	1.26445e+06	61078.5	3.1	8.45419e-07	0.000000000000000E+000	8.45419e-07	0.0000000E+000	0.000000000000000E+000	4.31792e-07
2	0	0	1	0	0	0	6.9	-0.300024	-0.300352	-0.00119451	1.56838e-05	1.56838e-05	41	-9.9237e-07	1	1.6068e-09	2.98078e-10	1.26445e+06	116609	3.5	9.9237e-07	0.000000000000000E+000	9.9237e-07	0.0000000E+000	0.000000000000000E+000	3.58773e-07
2	0	0	1	0	0	0	7.3	-0.300024	-0.300398	-0.000423471	1.53834e-05	1.53834e-05	41	-1.07581e-06	1	1.6068e-09	3.23142e-10	1.26445e+06	254312	3.9	1.07581e-06	0.000000000000000E+000	1.07581e-06	0.0000000E+000	0.000000000000000E+000	1.2721e-07
2	1	0	1	0	0	0	7.7	-0.300024	-0.300375	0.000552891	1.54637e-05	1.54637e-05	41	2.70517e-08	2	8.12536e-12	0.000000000000000E+000	8465.64	0.000000000000000E+000	0.2	0.000000000000000E+000	2.70517e-08	2.70517e-08	0.0000000E+000	1	-1.66075e-07
2	1	0	1	0	0	0	8.1	-0.300024	-0.300356	0.00154979	1.59192e-05	1.59192e-05	41	1.53576e-07	2	4.61303e-11	0.000000000000000E+000	18063.7	0.000000000000000E+000	0.6	0.000000000000000E+000	1.53576e-07	1.53576e-07	0.0000000E+000	1	-4.65487e-07
2	1	0	1	0	0	0	8.5	-0.300024	-0.300383	0.00506269	1.72538e-05	1.72538e-05	41	5.24294e-07	2	1.57488e-10	0.000000000000000E+000	487174	0.000000000000000E+000	1	0.000000000000000E+000	5.24294e-07	5.24294e-07	0.0000000E+000	1	-1.52074e-06
2	1	0	1	0	0	0	8.9	-0.300024	-0.300337	0.0158593	2.17657e-05	2.17657e-05	41	1.7776e-06	2	5.33917e-10	0.000000000000000E+000	128656	0.000000000000000E+000	1.4	0.000000000000000E+000	1.7776e-06	1.7776e-06	0.0000000E+000	1	-4.76312e-06
2	1	0	1	0	0	0	9.3	-0.300024	-0.300371	0.0284451	3.15155e-05	3.15155e-05	41	4.48589e-06	2	1.3474e-09	0.000000000000000E+000	1.05015e+06	0.000000000000000E+000	1.8	0.000000000000000E+000	4.48589e-06	4.48589e-06	0.0000000E+000	1	-8.54408e-06
2	1	0	1	0	0	0	9.7	-0.300024	-0.300348	0.0222415	4.18027e-05	4.18027e-05	41	7.34344e-06	2	2.20569e-09	0.000000000000000E+000	690317	0.000000000000000E+000	2.2	0.000000000000000E+000	7.34344e-06	7.34344e-06	0.0000000E+000	1	-6.68018e-06
2	1	0	1	0	0	0	10.1	-0.300024	-0.300333	0.013079	4.82483e-05	4.82483e-05	41	9.13387e-06	2	2.74342e-09	0.000000000000000E+000	613304	0.000000000000000E+000	2.6	0.000000000000000E+000	9.13387e-06	9.13387e-06	0.0000000E+000	1	-3.92806e-06
2	1	0	1	0	0	0	10.5	-0.300024	-0.300367	0.00812524	5.21604e-05	5.21604e-05	41	1.02206e-05	2	3.06981e-09	0.000000000000000E+000	1.92606e+06	0.000000000000000E+000	3	0.000000000000000E+000	1.02206e-05	1.02206e-05	0.0000000E+000	1	-2.44056e-06
2	1	0	1	0	0	0	10.9	-0.300024	-0.300398	0.00495592	5.45601e-05	5.45601e-05	41	1.08872e-05	2	3.27004e-09	0.000000000000000E+000	3.4248e+06	0.000000000000000E+000	3.4	0.000000000000000E+000	1.08872e-05	1.08872e-05	0.0000000E+000	1	-1.48875e-06
2	1	0	1	0	0	0	11.3	-0.300024	-0.300375	0.00308585	5.60621e-05	5.60621e-05	41	1.13044e-05	2	3.39534e-09	0.000000000000000E+000	3.54681e+06	0.000000000000000E+000	3.8	0.000000000000000E+000	1.13044e-05	1.13044e-05	0.0000000E+000	1	-9.26912e-07
2	1	0	1	0	0	0	11.7	-0.300024	-0.300413	0.00173637	5.69512e-05	5.69512e-05	41	1.15514e-05	2	3.46953e-09	0.000000000000000E+000	1.55906e+06	0.000000000000000E+000	4.2	0.000000000000000E+000	1.15514e-05	1.15514e-05	0.0000000E+000	1	-5.21629e-07
2	1	0	1	0	0	0	12.1	-0.300024	-0.300379	0.000792413	5.74017e-05	5.74017e-05	41	1.16765e-05	2	3.50712e-09	0.000000000000000E+000	5.46695e+06	0.000000000000000E+000	4.6	0.000000000000000E+000	1.16765e-05	1.16765e-05	0.0000000E+000	1	-2.38024e-07
2	1	0	1	0	0	0	12.5	-0.300024	-0.300371	0.000160713	5.75574e-05	5.75574e-05	41	1.17197e-05	2	3.5201e-09	0.000000000000000E+000	2.7436e+06	0.000000000000000E+000	5	0.000000000000000E+000	1.17197e-05	1.17197e-05	0.0000000E+000	1	-4.82736e-08
2	0	0	1	0	0	0	12.9	-0.300024	-0.300402	-0.000263001	5.75115e-05	5.75115e-05	41	-1.37975e-08	3	3.52042e-09	4.14442e-12	689300	590.186	0.2	1.37975e-08	0.000000000000000E+000	1.37975e-08	0.0000000E+000	1	7.90058e-08
2	0	0	1	0	0	0	13.3	-0.300024	-0.300398	-0.000540935	5.73387e-05	5.73387e-05	41	-6.17814e-08	3	3.52042e-09	1.85573e-11	689300	2770.21	0.6	6.17814e-08	0.000000000000000E+000	6.17814e-08	0.0000000E+000	1	1.62496e-07
2	0	0	1	0	0	0	13.7	-0.300024	-0.300375	-0.000752779	5.70638e-05	5.70638e-05	41	-1.38157e-07	3	3.52042e-09	4.14993e-11	689300	8674.04	1	1.38157e-07	0.000000000000000E+000	1.38157e-07	0.0000000E+000	1	2.26116e-07
2	0	0	1	0	0	0	14.1	-0.300024	-0.300356	-0.000870224	5.67278e-05	5.67278e-05	41	-2.31486e-07	3	3.52042e-09	6.95312e-11	689300	21794.7	1.4	2.31486e-07	0.000000000000000E+000	2.31486e-07	0.0000000E+000	1	2.61377e-07
2	0	0	1	0	0	0	14.5	-0.300024	-0.300352	-0.000670145	5.64172e-05	5.64172e-05	41	-3.17758e-07	3	3.52042e-09	9.54429e-11	689300	33290.4	1.8	3.17758e-07	0.000000000000000E+000	3.17758e-07	0.0000000E+000	1	2.01279e-07
2	1	0	1	0	0	0	14.9	-0.300024	-0.300367	5.23265e-05	5.63052e-05	5.63052e-05	41	1.45351e-09	4	4.36485e-13	0.000000000000000E+000	0.000000000000000E+000	0.000000000000000E+000	0.000000000000000E+000	0.000000000000000E+000	1.45351e-09	1.45351e-09	0.0000000E+000	2	-1.57172e-08
2	1	0	1	0	0	0	15.3	-0.300024	-0.300348	0.00196397	5.67579e-05	5.67579e-05	41	1.27204e-07	4	3.82088e-11	0.000000000000000E+000	24046.6	0.000000000000000E+000	0.4	0.000000000000000E+000	1.27204e-07	1.27204e-07	0.0000000E+000	2	-5.89875e-07
2	1	0	1	0	0	0	15.7	-0.300024	-0.300325	0.00514268	5.83202e-05	5.83202e-05	41	5.61165e-07	4	1.6855e-10	0.000000000000000E+000	48075.5	0.000000000000000E+000	0.8	0.000000000000000E+000	5.61165e-07	5.61165e-07	0.0000000E+000	2	-1.54448e-06
2	1	0	1	0	0	0	16.1	-0.300024	-0.300356	0.00726537	6.09939e-05	6.09939e-05	41	1.30387e-06	4	3.91629e-10	0.000000000000000E+000	411234	0.000000000000000E+000	1.2	0.000000000000000E+000	1.30387e-06	1.30387e-06	0.0000000E+000	2	-2.1822e-06
2	1	0	1	0	0	0	16.5	-0.300024	-0.300352	0.00631136	6.37293e-05	6.37293e-05	41	2.06371e-06	4	6.1986e-10	0.000000000000000E+000	487842	0.000000000000000E+000	1.6	0.000000000000000E+000	2.06371e-06	2.06371e-06	0.0000000E+000	2	-1.89563e-06
2	1	0	1	0	0	0	16.9	-0.300024	-0.300352	0.00448932	6.57988e-05	6.57988e-05	41	2.63856e-06	4	7.92536e-10	0.000000000000000E+000	623732	0.000000000000000E+000	2	0.000000000000000E+000	2.63856e-06	2.63856e-06	0.0000000E+000	2	-1.34838e-06
2	1	0	1	0	0	0	17.3	-0.300024	-0.300348	0.00313653	6.7232e-05	6.7232e-05	41	3.03667e-06	4	9.12111e-10	0.000000000000000E+000	572258	0.000000000000000E+000	2.4	0.000000000000000E+000	3.03667e-06	3.03667e-06	0.0000000E+000	2	-9.4205e-07
2	1	0	1	0	0	0	17.7	-0.300024	-0.300371	0.00219106	6.82407e-05	6.82407e-05	41	3.31687e-06	4	9.96279e-10	0.000000000000000E+000	3.05851e+06	0.000000000000000E+000	2.8	0.000000000000000E+000	3.31687e-06	3.31687e-06	0.0000000E+000	2	-6.58131e-07
2	1	0	1	0	0	0	18.1	-0.300024	-0.300383	0.00153052	6.89459e-05	6.89459e-05	41	3.51274e-06	4	1.05511e-09	0.000000000000000E+000	825535	0.000000000000000E+000	3.2	0.000000000000000E+000	3.51274e-06	3.51274e-06	0.0000000E+000	2	-4.59743e-07
2	1	0	1	0	0	0	18.5	-0.300024	-0.300383	0.00098663	6.94139e-05	6.94139e-05	41	3.64276e-06	4	1.09417e-09	0.000000000000000E+000	851124	0.000000000000000E+000	3.6	0.000000000000000E+000	3.64276e-06	3.64276e-06	0.0000000E+000	2	-2.96367e-07
2	1	0	1	0	0	0	18.9	-0.300024	-0.30036	0.00057362	6.97031e-05	6.97031e-05	41	3.72308e-06	4	1.11829e-09	0.000000000000000E+000	1.76366e+06	0.000000000000000E+000	4	0.000000000000000E+000	3.72308e-06	3.72308e-06	0.0000000E+000	2	-1.72292e-07
2	1	0	1	0	0	0	19.3	-0.300024	-0.300371	0.000225848	6.98409e-05	6.98409e-05	41	3.76136e-06	4	1.12979e-09	0.000000000000000E+000	3.54966e+06	0.000000000000000E+000	4.4	0.000000000000000E+000	3.76136e-06	3.76136e-06	0.0000000E+000	2	-6.78383e-08
2	1	0	1	0	0	0	19.7	-0.300024	-0.300321	-7.62801e-05	6.98598e-05	6.98598e-05	41	-2.11889e-09	5	1.132e-09	6.36114e-13	507522	0.000000000000000E+000	0.000000000000000E+000	2.11889e-09	0.000000000000000E+000	2.11889e-09	0.0000000E+000	2	2.29085e-08
2	0	0	1	0	0	0	20.1	-0.300024	-0.30036	-0.000378362	6.97492e-05	6.97492e-05	41	-3.28224e-08	5	1.132e-09	9.85836e-12	507522	3090.27	0.4	3.28224e-08	0.000000000000000E+000	3.28224e-08	0.0000000E+000	2	1.13645e-07
2	0	0	1	0	0	0	20.5	-0.300024	-0.300386	-0.000612819	6.95404e-05	6.95404e-05	41	-9.08376e-08	5	1.132e-09	2.72844e-11	507522	5033.4	0.8	9.08376e-08	0.000000000000000E+000	9.08376e-08	0.0000000E+000	2	1.84082e-07
2	0	0	1	0	0	0	20.9	-0.300024	-0.300363	-0.000819035	6.92429e-05	6.92429e-05	41	-1.7347e-07	5	1.132e-09	5.21044e-11	507522	14850.8	1.2	1.7347e-07	0.000000000000000E+000	1.7347e-07	0.0000000E+000	2	2.46008e-07
2	0	0	1	0	0	0	21.3	-0.300024	-0.300379	-0.000972107	6.8876e-05	6.8876e-05	41	-2.75398e-07	5	1.132e-09	8.27219e-11	507522	17290.5	1.6	2.75398e-07	0.000000000000000E+000	2.75398e-07	0.0000000E+000	2	2.92e-07
2	0	0	1	0	0	0	21.7	-0.300024	-0.300348	-0.00111146	6.84532e-05	6.84532e-05	41	-3.92823e-07	5	1.132e-09	1.17991e-10	507522	52900.2	2	3.92823e-07	0.000000000000000E+000	3.92823e-07	0.0000000E+000	2	3.33824e-07
2	0	0	1	0	0	0	22.1	-0.300024	-0.300333	-0.00123972	6.79766e-05	6.79766e-05	41	-5.25238e-07	5	1.132e-09	1.57762e-10	507522	164370	2.4	5.25238e-07	0.000000000000000E+000	5.25238e-07	0.0000000E+000	2	3.7233e-07
2	0	0	1	0	0	0	22.5	-0.300024	-0.300329	-0.00137093	6.74491e-05	6.74491e-05	41	-6.71765e-07	5	1.132e-09	2.01775e-10	507522	316979	2.8	6.71765e-07	0.000000000000000E+000	6.71765e-07	0.0000000E+000	2	4.1173e-07
2	0	0	1	0	0	0	22.9	-0.300024	-0.300321	-0.00151606	6.68635e-05	6.68635e-05	41	-8.34427e-07	5	1.132e-09	2.50633e-10	507522	0.000000000000000E+000	3.2	8.34427e-07	0.000000000000000E+000	8.34427e-07	0.0000000E+000	2	4.55305e-07
2	0	0	1	0	0	0	23.3	-0.300024	-0.300356	-0.00168562	6.62161e-05	6.62161e-05	41	-1.01426e-06	5	1.132e-09	3.04643e-10	507522	106353	3.6	1.01426e-06	0.000000000000000E+000	1.01426e-06	0.0000000E+000	2	5.06285e-07
2	0	0	1	0	0	0	23.7	-0.300024	-0.300428	-0.00183427	6.5503e-05	6.5503e-05	41	-1.21234e-06	5	1.132e-09	3.64144e-10	507522	40758.6	4	1.21234e-06	0.000000000000000E+000	1.21234e-06	0.0000000E+000	2	5.51066e-07
2	0	0	1	0	0	0	24.1	-0.300024	-0.300432	-0.00194929	6.47397e-05	6.47397e-05	41	-1.42435e-06	5	1.132e-09	4.2783e-10	507522	46239.3	4.4	1.42435e-06	0.000000000000000E+000	1.42435e-06	0.0000000E+000	2	5.8563e-07
2	0	0	1	0	0	0	24.5	-0.300024	-0.300333	-0.00203826	6.39373e-05	6.39373e-05	41	-1.64725e-06	5	1.132e-09	4.94777e-10	507522	519533	4.8	1.64725e-06	0.000000000000000E+000	1.64725e-06	0.0000000E+000	2	6.12156e-07
2	0	0	1	0	0	0	24.9	-0.300024	-0.300352	-0.0021119	6.31036e-05	6.31036e-05	41	-1.87884e-06	5	1.132e-09	5.6434e-10	507522	220990	5.2	1.87884e-06	0.000000000000000E+000	1.87884e-06	0.0000000E+000	2	6.34313e-07
2	0	0	1	0	0	0	25.3	-0.300024	-0.300417	-0.0021598	6.22447e-05	6.22447e-05	41	-2.11743e-06	5	1.132e-09	6.36003e-10	507522	79755.7	5.6	2.11743e-06	0.000000000000000E+000	2.11743e-06	0.0000000E+000	2	6.48842e-07
2	0	0	1	0	0	0	25.7	-0.300024	-0.300348	-0.00220609	6.13683e-05	6.13683e-05	41	-2.36087e-06	5	1.132e-09	7.09126e-10	507522	317931	6	2.36087e-06	0.000000000000000E+000	2.36087e-06	0.0000000E+000	2	6.62596e-07
2	0	0	1	0	0	0	26.1	-0.300024	-0.300367	-0.00223739	6.04777e-05	6.04777e-05	41	-2.60825e-06	5	1.132e-09	7.83426e-10	507522	204721	6.4	2.60825e-06	0.000000000000000E+000	2.60825e-06	0.0000000E+000	2	6.72038e-07
2	0	0	1	0	0	0	26.5	-0.300024	-0.300352	-0.00223913	5.95812e-05	5.95812e-05	41	-2.85729e-06	5	1.132e-09	8.58232e-10	507522	336731	6.8	2.85729e-06	0.000000000000000E+000	2.85729e-06	0.0000000E+000	2	6.72527e-07
2	0	0	1	0	0	0	26.9	-0.300024	-0.300352	-0.00217526	5.86989e-05	5.86989e-05	41	-3.10237e-06	5	1.132e-09	9.31849e-10	507522	364901	7.2	3.10237e-06	0.000000000000000E+000	3.10237e-06	0.0000000E+000	2	6.53345e-07
2	0	0	1	0	0	0	27.3	-0.300024	-0.300363	-0.00195955	5.78764e-05	5.78764e-05	41	-3.33084e-06	5	1.132e-09	1.00048e-09	507522	285154	7.6	3.33084e-06	0.000000000000000E+000	3.33084e-06	0.0000000E+000	2	5.88576e-07
2	0	0	1	0	0	0	27.7	-0.300024	-0.300341	-0.00145569	5.72059e-05	5.72059e-05	41	-3.51709e-06	5	1.132e-09	1.05642e-09	507522	661761	8	3.51709e-06	0.000000000000000E+000	3.51709e-06	0.0000000E+000	2	4.37204e-07
2	0	0	1	0	0	0	28.1	-0.300024	-0.300329	-0.000331321	5.68819e-05	5.68819e-05	41	-3.60707e-06	5	1.132e-09	1.08344e-09	507522	1.70203e+06	8.4	3.60707e-06	0.000000000000000E+000	3.60707e-06	95.7106	2	9.95052e-08
2	1	0	1	0	0	0	28.5	-0.300024	-0.300425	0.00152437	5.71935e-05	5.71935e-05	41	8.65454e-08	6	2.59971e-11	0.000000000000000E+000	3134.73	0.000000000000000E+000	0.3	0.000000000000000E+000	8.65454e-08	8.65454e-08	0.0000000E+000	3	-4.57958e-07
2	1	0	1	0	0	0	28.9	-0.300024	-0.300367	0.00310892	5.82455e-05	5.82455e-05	41	3.78764e-07	6	1.13779e-10	0.000000000000000E+000	32380.2	0.000000000000000E+000	0.7	0.000000000000000E+000	3.78764e-07	3.78764e-07	0.0000000E+000	3	-9.33819e-07
2	1	0	1	0	0	0	29.3	-0.300024	-0.300394	0.00267164	5.94288e-05	5.94288e-05	41	7.07449e-07	6	2.12504e-10	0.000000000000000E+000	37042.5	0.000000000000000E+000	1.1	0.000000000000000E+000	7.07449e-07	7.07449e-07	0.0000000E+000	3	-8.02544e-07
2	1	0	1	0	0	0	29.7	-0.300024	-0.30036	0.00169672	6.02337e-05	6.02337e-05	41	9.31046e-07	6	2.79666e-10	0.000000000000000E+000	97373.7	0.000000000000000E+000	1.5	0.000000000000000E+000	9.31046e-07	9.31046e-07	0.0000000E+000	3	-5.09627e-07
2	1	0	1	0	0	0	30.1	-0.300024	-0.300363	0.000621401	6.06486e-05	6.06486e-05	41	1.04631e-06	6	3.14287e-10	0.000000000000000E+000	98587.9	0.000000000000000E+000	1.9	0.000000000000000E+000	1.04631e-06	1.04631e-06	0.0000000E+000	3	-1.86646e-07
2	0	0	1	0	0	0	30.5	-0.300024	-0.30036	-0.000423816	6.06211e-05	6.06211e-05	41	-1.76051e-08	7	3.1728e-10	5.28779e-12	333141	16358.6	0.1	1.76051e-08	0.000000000000000E+000	1.76051e-08	0.0000000E+000	3	1.27297e-07
2	0	0	1	0	0	0	30.9	-0.300024	-0.300428	-0.00100044	6.02997e-05	6.02997e-05	41	-1.06886e-07	7	3.1728e-10	3.21062e-11	333141	5930.82	0.5	1.06886e-07	0.000000000000000E+000	1.06886e-07	0.0000000E+000	3	3.00562e-07
2	0	0	1	0	0	0	31.3	-0.300024	-0.300425	-0.00135031	5.98053e-05	5.98053e-05	41	-2.44216e-07	7	3.1728e-10	7.33594e-11	333141	14390.4	0.9	2.44216e-07	0.000000000000000E+000	2.44216e-07	0.0000000E+000	3	4.05665e-07
2	0	0	1	0	0	0	31.7	-0.300024	-0.300348	-0.00160505	5.92073e-05	5.92073e-05	41	-4.10341e-07	7	3.1728e-10	1.23258e-10	333141	96061.2	1.3	4.10341e-07	0.000000000000000E+000	4.10341e-07	0.0000000E+000	3	4.82075e-07
2	0	0	1	0	0	0	32.1	-0.300024	-0.300337	-0.00173571	5.85274e-05	5.85274e-05	41	-5.99187e-07	7	3.1728e-10	1.79973e-10	333141	80511	1.7	5.99187e-07	0.000000000000000E+000	5.99187e-07	0.0000000E+000	3	5.21297e-07
2	0	0	1	0	0	0	32.5	-0.300024	-0.300409	-0.00187944	5.7799e-05	5.7799e-05	41	-8.01542e-07	7	3.1728e-10	2.40752e-10	333141	62912.9	2.1	8.01542e-07	0.000000000000000E+000	8.01542e-07	0.0000000E+000	3	5.64601e-07
2	0	0	1	0	0	0	32.9	-0.300024	-0.300341	-0.0020024	5.70152e-05	5.70152e-05	41	-1.01925e-06	7	3.1728e-10	3.06137e-10	333141	159691	2.5	1.01925e-06	0.000000000000000E+000	1.01925e-06	0.0000000E+000	3	6.014e-07
2	0	0	1	0	0	0	33.3	-0.300024	-0.300425	-0.00209046	5.61906e-05	5.61906e-05	41	-1.2483e-06	7	3.1728e-10	3.74935e-10	333141	73555.8	2.9	1.2483e-06	0.000000000000000E+000	1.2483e-06	0.0000000E+000	3	6.28027e-07
2	0	0	1	0	0	0	33.7	-0.300024	-0.30036	-0.00215859	5.53371e-05	5.53371e-05	41	-1.48538e-06	7	3.1728e-10	4.46148e-10	333141	1.38022e+06	3.3	1.48538e-06	0.000000000000000E+000	1.48538e-06	0.0000000E+000	3	6.48354e-07
2	0	0	1	0	0	0	34.1	-0.300024	-0.300383	-0.00222073	5.4456e-05	5.4456e-05	41	-1.73013e-06	7	3.1728e-10	5.19665e-10	333141	325534	3.7	1.73013e-06	0.000000000000000E+000	1.73013e-06	0.0000000E+000	3	6.6707e-07
2	0	0	1	0	0	0	34.5	-0.300024	-0.300371	-0.00226175	5.35574e-05	5.35574e-05	41	-1.97975e-06	7	3.1728e-10	5.94646e-10	333141	934163	4.1	1.97975e-06	0.000000000000000E+000	1.97975e-06	0.0000000E+000	3	6.79365e-07
2	0	0	1	0	0	0	34.9	-0.300024	-0.300333	-0.00227205	5.2649e-05	5.2649e-05	41	-2.23208e-06	7	3.1728e-10	6.70431e-10	333141	262027	4.5	2.23208e-06	0.000000000000000E+000	2.23208e-06	0.0000000E+000	3	6.82373e-07
2	0	0	1	0	0	0	35.3	-0.300024	-0.300379	-0.00212726	5.17697e-05	5.17697e-05	41	-2.47635e-06	7	3.1728e-10	7.43802e-10	333141	585387	4.9	2.47635e-06	0.000000000000000E+000	2.47635e-06	0.0000000E+000	3	6.38982e-07
2	0	0	1	0	0	0	35.7	-0.300024	-0.300363	-0.00163092	5.10291e-05	5.10291e-05	41	-2.68206e-06	7	3.1728e-10	8.0559e-10	333141	0.000000000000000E+000	5.3	2.68206e-06	0.000000000000000E+000	2.68206e-06	0.0000000E+000	3	4.89868e-07
2	0	0	1	0	0	0	36.1	-0.300024	-0.300375	-0.000503703	5.06332e-05	5.06332e-05	41	-2.79203e-06	7	3.1728e-10	8.38622e-10	333141	878298	5.7	2.79203e-06	0.000000000000000E+000	2.79203e-06	0.0000000E+000	3	1.513e-07
2	1	0	1	0	0	0	36.5	-0.300024	-0.300383	0.00163566	5.09329e-05	5.09329e-05	41	8.52516e-08	8	2.5608e-11	0.000000000000000E+000	20035.1	0.000000000000000E+000	0.2	0.000000000000000E+000	8.52516e-08	8.52516e-08	0.0000000E+000	4	-4.91322e-07
2	1	0	1	0	0	0	36.9	-0.300024	-0.300383	0.00407242	5.2227e-05	5.2227e-05	41	4.44735e-07	8	1.33595e-10	0.000000000000000E+000	105131	0.000000000000000E+000	0.6	0.000000000000000E+000	4.44735e-07	4.44735e-07	0.0000000E+000	4	-1.22328e-06
2	1	0	1	0	0	0	37.3	-0.300024	-0.300367	0.00478148	5.41119e-05	5.41119e-05	41	9.68296e-07	8	2.90852e-10	0.000000000000000E+000	113780	0.000000000000000E+000	1	0.000000000000000E+000	9.68296e-07	9.68296e-07	0.0000000E+000	4	-1.4362e-06
2	1	0	1	0	0	0	37.7	-0.300024	-0.300386	0.00363587	5.5765e-05	5.5765e-05	41	1.42751e-06	8	4.28786e-10	0.000000000000000E+000	446728	0.000000000000000E+000	1.4	0.000000000000000E+000	1.42751e-06	1.42751e-06	0.0000000E+000	4	-1.09217e-06
2	1	0	1	0	0	0	38.1	-0.300024	-0.300444	0.00224879	5.6861e-05	5.6861e-05	41	1.73195e-06	8	5.20236e-10	0.000000000000000E+000	135764	0.000000000000000E+000	1.8	0.000000000000000E+000	1.73195e-06	1.73195e-06	0.0000000E+000	4	-6.75636e-07
2	1	0	1	0	0	0	38.5	-0.300024	-0.300383	0.00122833	5.74946e-05	5.74946e-05	41	1.90796e-06	8	5.73103e-10	0.000000000000000E+000	451025	0.000000000000000E+000	2.2	0.000000000000000E+000	1.90796e-06	1.90796e-06	0.0000000E+000	4	-3.68969e-07
2	1	0	1	0	0	0	38.9	-0.300024	-0.300348	0.000548798	5.78129e-05	5.78129e-05	41	1.99638e-06	8	5.9966e-10	0.000000000000000E+000	144490	0.000000000000000E+000	2.6	0.000000000000000E+000	1.99638e-06	1.99638e-06	0.0000000E+000	4	-1.6483e-07
2	0	0	1	0	0	0	39.3	-0.300024	-0.300413	3.1902e-05	5.78981e-05	5.78981e-05	41	2.02003e-06	8	6.06765e-10	0.000000000000000E+000	477518	0.000000000000000E+000	3	0.000000000000000E+000	2.02003e-06	2.02003e-06	0.0000000E+000	4	-9.58377e-09
2	0	0	1	0	0	0	39.7	-0.300024	-0.300383	-0.000342999	5.78153e-05	5.78153e-05	41	-2.30059e-08	9	6.06765e-10	6.91028e-12	477518	2711.23	0.3	2.30059e-08	0.000000000000000E+000	2.30059e-08	0.0000000E+000	4	1.03031e-07
2	0	0	1	0	0	0	40.1	-0.300024	-0.300371	-0.000635645	5.76045e-05	5.76045e-05	41	-8.15592e-08	9	6.06765e-10	2.44981e-11	477518	15417.9	0.7	8.15592e-08	0.000000000000000E+000	8.15592e-08	0.0000000E+000	4	1.90929e-07
2	0	0	1	0	0	0	40.5	-0.300024	-0.300333	-0.000932328	5.72686e-05	5.72686e-05	41	-1.74866e-07	9	6.06765e-10	5.25241e-11	477518	32799.8	1.1	1.74866e-07	0.000000000000000E+000	1.74866e-07	0.0000000E+000	4	2.80009e-07
2	0	0	1	0	0	0	40.9	-0.300024	-0.300383	-0.00119207	5.68264e-05	5.68264e-05	41	-2.97688e-07	9	6.06765e-10	8.94176e-11	477518	34980.1	1.5	2.97688e-07	0.000000000000000E+000	2.97688e-07	0.0000000E+000	4	3.58078e-07
2	0	0	1	0	0	0	41.3	-0.300024	-0.300409	-0.0013793	5.63015e-05	5.63015e-05	41	-4.43511e-07	9	6.06765e-10	1.33218e-10	477518	27830.8	1.9	4.43511e-07	0.000000000000000E+000	4.43511e-07	0.0000000E+000	4	4.14356e-07
2	0	0	1	0	0	0	41.7	-0.300024	-0.300405	-0.0015755	5.57002e-05	5.57002e-05	41	-6.10533e-07	9	6.06765e-10	1.83387e-10	477518	41109.2	2.3	6.10533e-07	0.000000000000000E+000	6.10533e-07	0.0000000E+000	4	4.7329e-07
2	0	0	1	0	0	0	42.1	-0.300024	-0.30039	-0.00171045	5.50356e-05	5.50356e-05	41	-7.95143e-07	9	6.06765e-10	2.38836e-10	477518	74863.6	2.7	7.95143e-07	0.000000000000000E+000	7.95143e-07	0.0000000E+000	4	5.13804e-07
2	0	0	1	0	0	0	42.5	-0.300024	-0.30039	-0.00181629	5.43245e-05	5.43245e-05	41	-9.92679e-07	9	6.06765e-10	2.9817e-10	477518	93607.8	3.1	9.92679e-07	0.000000000000000E+000	9.92679e-07	0.0000000E+000	4	5.45596e-07
2	0	0	1	0	0	0	42.9	-0.300024	-0.30031	-0.00191164	5.35737e-05	5.35737e-05	41	-1.20122e-06	9	6.06765e-10	3.60806e-10	477518	102691	3.5	1.20122e-06	0.000000000000000E+000	1.20122e-06	0.0000000E+000	4	5.74085e-07
2	0	0	1	0	0	0	43.3	-0.300024	-0.300402	-0.00199306	5.27877e-05	5.27877e-05	41	-1.41956e-06	9	6.06765e-10	4.26391e-10	477518	102866	3.9	1.41956e-06	0.000000000000000E+000	1.41956e-06	0.0000000E+000	4	5.98719e-07
2	0	0	1	0	0	0	43.7	-0.300024	-0.300344	-0.00206888	5.19709e-05	5.19709e-05	41	-1.64644e-06	9	6.06765e-10	4.94534e-10	477518	770865	4.3	1.64644e-06	0.000000000000000E+000	1.64644e-06	0.0000000E+000	4	6.21376e-07
2	0	0	1	0	0	0	44.1	-0.300024	-0.300352	-0.00213932	5.1126e-05	5.1126e-05	41	-1.88113e-06	9	6.06765e-10	5.65023e-10	477518	0.000000000000000E+000	4.7	1.88113e-06	0.000000000000000E+000	1.88113e-06	0.0000000E+000	4	6.4255e-07
2	0	0	1	0	0	0	44.5	-0.300024	-0.300333	-0.00219569	5.0257e-05	5.0257e-05	41	-2.12252e-06	9	6.06765e-10	6.37526e-10	477518	398124	5.1	2.12252e-06	0.000000000000000E+000	2.12252e-06	0.0000000E+000	4	6.59438e-07
2	0	0	1	0	0	0	44.9	-0.300024	-0.300337	-0.0022448	4.93667e-05	4.93667e-05	41	-2.36984e-06	9	6.06765e-10	7.11809e-10	477518	558025	5.5	2.36984e-06	0.000000000000000E+000	2.36984e-06	0.0000000E+000	4	6.74196e-07
2	0	0	1	0	0	0	45.3	-0.300024	-0.300329	-0.00228042	4.84608e-05	4.84608e-05	41	-2.62148e-06	9	6.06765e-10	7.87381e-10	477518	410719	5.9	2.62148e-06	0.000000000000000E+000	2.62148e-06	0.0000000E+000	4	6.84876e-07
2	0	0	1	0	0	0	45.7	-0.300024	-0.300333	-0.00231381	4.75387e-05	4.75387e-05	41	-2.8776e-06	9	6.06765e-10	8.64301e-10	477518	542282	6.3	2.8776e-06	0.000000000000000E+000	2.8776e-06	0.0000000E+000	4	6.94914e-07
2	0	0	1	0	0	0	46.1	-0.300024	-0.30036	-0.00234782	4.66047e-05	4.66047e-05	41	-3.13707e-06	9	6.06765e-10	9.42234e-10	477518	1.48025e+06	6.7	3.13707e-06	0.000000000000000E+000	3.13707e-06	0.0000000E+000	4	7.0519e-07
2	0	0	1	0	0	0	46.5	-0.300024	-0.300383	-0.00240607	4.56458e-05	4.56458e-05	41	-3.40341e-06	9	6.06765e-10	1.02223e-09	477518	401091	7.1	3.40341e-06	0.000000000000000E+000	3.40341e-06	0.0000000E+000	4	7.22741e-07
2	0	0	1	0	0	0	46.9	-0.300024	-0.30036	-0.00244296	4.46777e-05	4.46777e-05	41	-3.67232e-06	9	6.06765e-10	1.10301e-09	477518	1.73282e+06	7.5	3.67232e-06	0.000000000000000E+000	3.67232e-06	0.0000000E+000	4	7.33765e-07
2	0	0	1	0	0	0	47.3	-0.300024	-0.300432	-0.0023671	4.37267e-05	4.37267e-05	41	-3.9365e-06	9	6.06765e-10	1.18236e-09	477518	176574	7.9	3.9365e-06	0.000000000000000E+000	3.9365e-06	0.0000000E+000	4	7.11154e-07
2	0	0	1	0	0	0	47.7	-0.300024	-0.300341	-0.00228974	4.27955e-05	4.27955e-05	41	-4.19516e-06	9	6.06765e-10	1.26005e-09	477518	1.31285e+06	8.3	4.19516e-06	0.000000000000000E+000	4.19516e-06	0.0000000E+000	4	6.87701e-07
2	0	0	1	0	0	0	48.1	-0.300024	-0.300329	-0.00210831	4.19201e-05	4.19201e-05	41	-4.43832e-06	9	6.06765e-10	1.33308e-09	477518	697180	8.7	4.43832e-06	0.000000000000000E+000	4.43832e-06	0.0000000E+000	4	6.33187e-07
2	0	0	1	0	0	0	48.5	-0.300024	-0.300337	-0.00178234	4.11549e-05	4.11549e-05	41	-4.6509e-06	9	6.06765e-10	1.39693e-09	477518	1.09515e+06	9.1	4.6509e-06	0.000000000000000E+000	4.6509e-06	0.0000000E+000	4	5.35301e-07
2	0	0	1	0	0	0	48.9	-0.300024	-0.300367	-0.00110716	4.06058e-05	4.06058e-05	41	-4.80341e-06	9	6.06765e-10	1.44274e-09	477518	1.12886e+06	9.5	4.80341e-06	0.000000000000000E+000	4.80341e-06	0.0000000E+000	4	3.32555e-07
2	0	0	1	0	0	0	49.3	-0.300024	-0.300329	-9.79192e-05	4.04068e-05	4.04068e-05	41	-4.8587e-06	9	6.06765e-10	1.45934e-09	477518	763213	9.9	4.8587e-06	0.000000000000000E+000	4.8587e-06	240.526	4	2.9408e-08
2	1	0	1	0	0	0	49.7	-0.300024	-0.300363	0.000935953	4.0642e-05	4.0642e-05	41	6.53369e-08	10	1.96253e-11	0.000000000000000E+000	15475.4	0.000000000000000E+000	0.3	0.000000000000000E+000	6.53369e-08	6.53369e-08	0.0000000E+000	5	-2.81126e-07
2	1	0	1	0	0	0	50.1	-0.300024	-0.30036	0.00094274	4.10547e-05	4.10547e-05	41	1.7997e-07	10	5.40554e-11	0.000000000000000E+000	56761.4	0.000000000000000E+000	0.7	0.000000000000000E+000	1.7997e-07	1.7997e-07	0.0000000E+000	5	-2.83161e-07
2	1	0	1	0	0	0	50.5	-0.300024	-0.300329	0.000264371	4.12608e-05	4.12608e-05	41	2.37235e-07	10	7.12552e-11	0.000000000000000E+000	44498.5	0.000000000000000E+000	1.1	0.000000000000000E+000	2.37235e-07	2.37235e-07	0.0000000E+000	5	-7.93984e-08
2	0	0	1	0	0	0	50.9	-0.300024	-0.300329	-0.000406741	4.11999e-05	4.11999e-05	41	-1.98147e-08	11	7.21193e-11	5.95106e-12	113744	3728.25	0.2	1.98147e-08	0.000000000000000E+000	1.98147e-08	0.0000000E+000	5	1.22156e-07
2	0	0	1	0	0	0	51.3	-0.300024	-0.300356	-0.00111249	4.08565e-05	4.08565e-05	41	-1.15189e-07	11	7.21193e-11	3.4598e-11	113744	53931.6	0.6	1.15189e-07	0.000000000000000E+000	1.15189e-07	0.0000000E+000	5	3.34142e-07
2	0	0	1	0	0	0	51.7	-0.300024	-0.300375	-0.0015689	4.02884e-05	4.02884e-05	41	-2.72987e-07	11	7.21193e-11	8.19925e-11	113744	36680.4	1	2.72987e-07	0.000000000000000E+000	2.72987e-07	0.0000000E+000	5	4.71258e-07
2	0	0	1	0	0	0	52.1	-0.300024	-0.300341	-0.00181401	3.95952e-05	3.95952e-05	41	-4.65565e-07	11	7.21193e-11	1.39834e-10	113744	220542	1.4	4.65565e-07	0.000000000000000E+000	4.65565e-07	0.0000000E+000	5	5.44822e-07
2	0	0	1	0	0	0	52.5	-0.300024	-0.300344	-0.00193201	3.88365e-05	3.88365e-05	41	-6.76295e-07	11	7.21193e-11	2.03131e-10	113744	638232	1.8	6.76295e-07	0.000000000000000E+000	6.76295e-07	0.0000000E+000	5	5.80267e-07
2	0	0	1	0	0	0	52.9	-0.300024	-0.300333	-0.00209804	3.80196e-05	3.80196e-05	41	-9.03231e-07	11	7.21193e-11	2.71285e-10	113744	212684	2.2	9.03231e-07	0.000000000000000E+000	9.03231e-07	0.0000000E+000	5	6.30111e-07
2	0	0	1	0	0	0	53.3	-0.300024	-0.300333	-0.0021797	3.71591e-05	3.71591e-05	41	-1.14226e-06	11	7.21193e-11	3.43077e-10	113744	270020	2.6	1.14226e-06	0.000000000000000E+000	1.14226e-06	0.0000000E+000	5	6.54634e-07
2	0	0	1	0	0	0	53.7	-0.300024	-0.300356	-0.00226292	3.62658e-05	3.62658e-05	41	-1.39038e-06	11	7.21193e-11	4.176e-10	113744	658638	3	1.39038e-06	0.000000000000000E+000	1.39038e-06	0.0000000E+000	5	6.79681e-07
2	0	0	1	0	0	0	54.1	-0.300024	-0.30036	-0.00230516	3.53502e-05	3.53502e-05	41	-1.64471e-06	11	7.21193e-11	4.93995e-10	113744	514699	3.4	1.64471e-06	0.000000000000000E+000	1.64471e-06	0.0000000E+000	5	6.92378e-07
2	0	0	1	0	0	0	54.5	-0.300024	-0.300321	-0.00234617	3.44179e-05	3.44179e-05	41	-1.90369e-06	11	7.21193e-11	5.71779e-10	113744	256364	3.8	1.90369e-06	0.000000000000000E+000	1.90369e-06	0.0000000E+000	5	7.04606e-07
2	0	0	1	0	0	0	54.9	-0.300024	-0.300321	-0.00237651	3.34715e-05	3.34715e-05	41	-2.16658e-06	11	7.21193e-11	6.50738e-10	113744	291765	4.2	2.16658e-06	0.000000000000000E+000	2.16658e-06	0.0000000E+000	5	7.13718e-07
2	0	0	1	0	0	0	55.3	-0.300024	-0.300379	-0.00239842	3.25125e-05	3.25125e-05	41	-2.43298e-06	11	7.21193e-11	7.30754e-10	113744	286168	4.6	2.43298e-06	0.000000000000000E+000	2.43298e-06	0.0000000E+000	5	7.20434e-07
2	0	0	1	0	0	0	55.7	-0.300024	-0.300333	-0.00241565	3.15468e-05	3.15468e-05	41	-2.70123e-06	11	7.21193e-11	8.11317e-10	113744	636057	5	2.70123e-06	0.000000000000000E+000	2.70123e-06	0.0000000E+000	5	7.255e-07
2	0	0	1	0	0	0	56.1	-0.300024	-0.300371	-0.00237296	3.05904e-05	3.05904e-05	41	-2.96688e-06	11	7.21193e-11	8.9111e-10	113744	466043	5.4	2.96688e-06	0.000000000000000E+000	2.96688e-06	0.0000000E+000	5	7.12769e-07
2	0	0	1	0	0	0	56.5	-0.300024	-0.300344	-0.00225537	2.96678e-05	2.96678e-05	41	-3.22317e-06	11	7.21193e-11	9.68092e-10	113744	3.04177e+06	5.8	3.22317e-06	0.000000000000000E+000	3.22317e-06	0.0000000E+000	5	6.77388e-07
2	0	0	1	0	0	0	56.9	-0.300024	-0.300295	-0.00190869	2.88394e-05	2.88394e-05	41	-3.45327e-06	11	7.21193e-11	1.0372e-09	113744	232261	6.2	3.45327e-06	0.000000000000000E+000	3.45327e-06	0.0000000E+000	5	5.73169e-07
2	0	0	1	0	0	0	57.3	-0.300024	-0.300341	-0.000997587	2.82836e-05	2.82836e-05	41	-3.60765e-06	11	7.21193e-11	1.08357e-09	113744	1.70898e+06	6.6	3.60765e-06	0.000000000000000E+000	3.60765e-06	0.0000000E+000	5	2.99616e-07
2	1	0	1	0	0	0	57.7	-0.300024	-0.30039	0.000330072	2.82163e-05	2.82163e-05	41	9.36122e-09	12	2.81201e-12	0.000000000000000E+000	881.37	0.000000000000000E+000	0.1	0.000000000000000E+000	9.36122e-09	9.36122e-09	0.0000000E+000	6	-9.91505e-08
2	1	0	1	0	0	0	58.1	-0.300024	-0.300329	0.00118395	2.85946e-05	2.85946e-05	41	1.14438e-07	12	3.43709e-11	0.000000000000000E+000	17929.5	0.000000000000000E+000	0.5	0.000000000000000E+000	1.14438e-07	1.14438e-07	0.0000000E+000	6	-3.55574e-07
2	1	0	1	0	0	0	58.5	-0.300024	-0.300325	0.000904497	2.90303e-05	2.90303e-05	41	2.35472e-07	12	7.07259e-11	0.000000000000000E+000	31710.3	0.000000000000000E+000	0.9	0.000000000000000E+000	2.35472e-07	2.35472e-07	0.0000000E+000	6	-2.71643e-07
2	0	0	1	0	0	0	58.9	-0.300024	-0.30039	2.03574e-05	2.91734e-05	2.91734e-05	41	2.75206e-07	12	8.26601e-11	0.000000000000000E+000	25910.9	0.000000000000000E+000	1.3	0.000000000000000E+000	2.75206e-07	2.75206e-07	0.0000000E+000	6	-6.11515e-09
2	0	0	1	0	0	0	59.3	-0.300024	-0.300413	-0.000695944	2.89968e-05	2.89968e-05	41	-4.90585e-08	13	8.26601e-11	1.47361e-11	25910.9	11551.8	0.3	4.90585e-08	0.000000000000000E+000	4.90585e-08	0.0000000E+000	6	2.09071e-07
2	0	0	1	0	0	0	59.7	-0.300024	-0.300321	-0.00110611	2.86084e-05	2.86084e-05	41	-1.56935e-07	13	8.26601e-11	4.71393e-11	25910.9	7387.8	0.7	1.56935e-07	0.000000000000000E+000	1.56935e-07	0.0000000E+000	6	3.32189e-07
2	0	0	1	0	0	0	60.1	-0.300024	-0.300364	-0.00115732	2.81309e-05	2.81309e-05	41	-2.89569e-07	13	8.26601e-11	8.69812e-11	25910.9	30337.2	1.1	2.89569e-07	0.000000000000000E+000	2.89569e-07	0.0000000E+000	6	3.47618e-07
2	0	0	1	0	0	0	60.5	-0.300024	-0.300337	-0.000585012	2.7803e-05	2.7803e-05	41	-3.8067e-07	13	8.26601e-11	1.14345e-10	25910.9	22409	1.5	3.8067e-07	0.000000000000000E+000	3.8067e-07	0.0000000E+000	6	1.75701e-07
2	0	0	1	0	0	0	60.9	-0.300024	-0.300344	-0.00017169	2.76806e-05	2.76806e-05	41	-4.14658e-07	13	8.26601e-11	1.24554e-10	25910.9	27873.7	1.9	4.14658e-07	0.000000000000000E+000	4.14658e-07	0.0000000E+000	6	5.15662e-08
2	0	0	1	0	0	0	61.3	-0.300024	-0.300398	-2.28768e-05	2.76554e-05	2.76554e-05	41	-4.21662e-07	13	8.26601e-11	1.26658e-10	25910.9	0.000000000000000E+000	2.3	4.21662e-07	0.000000000000000E+000	4.21662e-07	0.0000000E+000	6	6.87215e-09
2	0	0	1	0	0	0	61.7	-0.300024	-0.300325	-3.68612e-05	2.76451e-05	2.76451e-05	41	-4.24533e-07	13	8.26601e-11	1.2752e-10	25910.9	21051.7	2.7	4.24533e-07	0.000000000000000E+000	4.24533e-07	0.0000000E+000	6	1.10704e-08
2	0	0	1	0	0	0	62.1	-0.300024	-0.300318	-0.000149433	2.7603e-05	2.7603e-05	41	-4.36207e-07	13	8.26601e-11	1.31026e-10	25910.9	19559.1	3.1	4.36207e-07	0.000000000000000E+000	4.36207e-07	0.0000000E+000	6	4.48773e-08
2	0	0	1	0	0	0	62.5	-0.300024	-0.300375	-0.000276047	2.75131e-05	2.75131e-05	41	-4.6119e-07	13	8.26601e-11	1.3853e-10	25910.9	72350.6	3.5	4.6119e-07	0.000000000000000E+000	4.6119e-07	0.0000000E+000	6	8.29177e-08
2	0	0	1	0	0	0	62.9	-0.300024	-0.30039	-0.000450765	2.736e-05	2.736e-05	41	-5.03721e-07	13	8.26601e-11	1.51305e-10	25910.9	235843	3.9	5.03721e-07	0.000000000000000E+000	5.03721e-07	0.0000000E+000	6	1.35405e-07
2	0	0	1	0	0	0	63.3	-0.300024	-0.300344	-0.000649556	2.71271e-05	2.71271e-05	41	-5.68413e-07	13	8.26601e-11	1.70737e-10	25910.9	38209.2	4.3	5.68413e-07	0.000000000000000E+000	5.68413e-07	0.0000000E+000	6	1.9509e-07
2	0	0	1	0	0	0	63.7	-0.300024	-0.300356	-0.000843747	2.68203e-05	2.68203e-05	41	-6.53637e-07	13	8.26601e-11	1.96337e-10	25910.9	55839.3	4.7	6.53637e-07	0.000000000000000E+000	6.53637e-07	0.0000000E+000	6	2.53424e-07
2	0	0	1	0	0	0	64.1	-0.300024	-0.300367	-0.00104831	2.64301e-05	2.64301e-05	41	-7.62027e-07	13	8.26601e-11	2.28898e-10	25910.9	89804.6	5.1	7.62027e-07	0.000000000000000E+000	7.62027e-07	0.0000000E+000	6	3.14878e-07
2	0	0	1	0	0	0	64.5	-0.300024	-0.300337	-0.00125641	2.59582e-05	2.59582e-05	41	-8.93111e-07	13	8.26601e-11	2.68275e-10	25910.9	52575.2	5.5	8.93111e-07	0.000000000000000E+000	8.93111e-07	0.0000000E+000	6	3.77347e-07
2	0	0	1	0	0	0	64.9	-0.300024	-0.300318	-0.00146476	2.54035e-05	2.54035e-05	41	-1.04719e-06	13	8.26601e-11	3.14553e-10	25910.9	46919.9	5.9	1.04719e-06	0.000000000000000E+000	1.04719e-06	0.0000000E+000	6	4.39892e-07
2	0	0	1	0	0	0	65.3	-0.300024	-0.300402	-0.00166052	2.47675e-05	2.47675e-05	41	-1.22385e-06	13	8.26601e-11	3.67614e-10	25910.9	1.15497e+06	6.3	1.22385e-06	0.000000000000000E+000	1.22385e-06	0.0000000E+000	6	4.98823e-07
2	0	0	1	0	0	0	65.7	-0.300024	-0.300394	-0.00183936	2.40598e-05	2.40598e-05	41	-1.42045e-06	13	8.26601e-11	4.26666e-10	25910.9	1.3405e+06	6.7	1.42045e-06	0.000000000000000E+000	1.42045e-06	0.0000000E+000	6	5.52534e-07
2	0	0	1	0	0	0	66.1	-0.300024	-0.300371	-0.00198778	2.32859e-05	2.32859e-05	41	-1.63541e-06	13	8.26601e-11	4.91231e-10	25910.9	220235	7.1	1.63541e-06	0.000000000000000E+000	1.63541e-06	0.0000000E+000	6	5.97071e-07
2	0	0	1	0	0	0	66.5	-0.300024	-0.300367	-0.00209621	2.24621e-05	2.24621e-05	41	-1.86424e-06	13	8.26601e-11	5.59964e-10	25910.9	219700	7.5	1.86424e-06	0.000000000000000E+000	1.86424e-06	0.0000000E+000	6	6.29634e-07
2	0	0	1	0	0	0	66.9	-0.300024	-0.300325	-0.00219587	2.15972e-05	2.15972e-05	41	-2.1045e-06	13	8.26601e-11	6.3213e-10	25910.9	104272	7.9	2.1045e-06	0.000000000000000E+000	2.1045e-06	0.0000000E+000	6	6.59476e-07
2	0	0	1	0	0	0	67.3	-0.300024	-0.300413	-0.00226892	2.06999e-05	2.06999e-05	41	-2.35374e-06	13	8.26601e-11	7.06993e-10	25910.9	554235	8.3	2.35374e-06	0.000000000000000E+000	2.35374e-06	0.0000000E+000	6	6.81613e-07
2	0	0	1	0	0	0	67.7	-0.300024	-0.30036	-0.00233174	1.97764e-05	1.97764e-05	41	-2.61026e-06	13	8.26601e-11	7.84045e-10	25910.9	245759	8.7	2.61026e-06	0.000000000000000E+000	2.61026e-06	0.0000000E+000	6	7.0036e-07
2	0	0	1	0	0	0	68.1	-0.300024	-0.300383	-0.00240707	1.88244e-05	1.88244e-05	41	-2.87472e-06	13	8.26601e-11	8.63479e-10	25910.9	675592	9.1	2.87472e-06	0.000000000000000E+000	2.87472e-06	0.0000000E+000	6	7.23041e-07
2	0	0	1	0	0	0	68.5	-0.300024	-0.300356	-0.00244096	1.7855e-05	1.7855e-05	41	-3.144e-06	13	8.26601e-11	9.44364e-10	25910.9	269158	9.5	3.144e-06	0.000000000000000E+000	3.144e-06	0.0000000E+000	6	7.33155e-07
2	0	0	1	0	0	0	68.9	-0.300024	-0.300352	-0.00245838	1.68761e-05	1.68761e-05	41	-3.4159e-06	13	8.26601e-11	1.02602e-09	25910.9	268113	9.9	3.4159e-06	0.000000000000000E+000	3.4159e-06	0.0000000E+000	6	7.3838e-07
2	0	0	1	0	0	0	69.3	-0.300024	-0.30031	-0.00248496	1.58862e-05	1.58862e-05	41	-3.69087e-06	13	8.26601e-11	1.10861e-09	25910.9	151184	10.3	3.69087e-06	0.000000000000000E+000	3.69087e-06	0.0000000E+000	6	7.46259e-07
2	0	0	1	0	0	0	69.7	-0.300024	-0.300394	-0.00251485	1.48887e-05	1.48887e-05	41	-3.96796e-06	13	8.26601e-11	1.19184e-09	25910.9	3.74464e+06	10.7	3.96796e-06	0.000000000000000E+000	3.96796e-06	0.0000000E+000	6	7.55445e-07
2	0	0	1	0	0	0	70.1	-0.300024	-0.300367	-0.00252243	1.38818e-05	1.38818e-05	41	-4.24767e-06	13	8.26601e-11	1.27586e-09	25910.9	500587	11.1	4.24767e-06	0.000000000000000E+000	4.24767e-06	0.0000000E+000	6	7.57655e-07
2	0	0	1	0	0	0	70.5	-0.300024	-0.300383	-0.00254395	1.28683e-05	1.28683e-05	41	-4.52919e-06	13	8.26601e-11	1.36042e-09	25910.9	1.06441e+06	11.5	4.52919e-06	0.000000000000000E+000	4.52919e-06	0.0000000E+000	6	7.64158e-07
2	0	0	1	0	0	0	70.9	-0.300024	-0.300375	-0.00255042	1.18517e-05	1.18517e-05	41	-4.81157e-06	13	8.26601e-11	1.44523e-09	25910.9	754828	11.9	4.81157e-06	0.000000000000000E+000	4.81157e-06	0.0000000E+000	6	7.66083e-07
2	0	0	1	0	0	0	71.3	-0.300024	-0.300352	-0.00258041	1.08244e-05	1.08244e-05	41	-5.09694e-06	13	8.26601e-11	1.53095e-09	25910.9	399539	12.3	5.09694e-06	0.000000000000000E+000	5.09694e-06	0.0000000E+000	6	7.75031e-07
2	0	0	1	0	0	0	71.7	-0.300024	-0.300371	-0.00259434	9.78476e-06	9.78476e-06	41	-5.38572e-06	13	8.26601e-11	1.61769e-09	25910.9	725277	12.7	5.38572e-06	0.000000000000000E+000	5.38572e-06	0.0000000E+000	6	7.79264e-07
2	0	0	1	0	0	0	72.1	-0.300024	-0.30039	-0.00260583	8.74098e-06	8.74098e-06	41	-5.67566e-06	13	8.26601e-11	1.70477e-09	25910.9	2.67811e+06	13.1	5.67566e-06	0.000000000000000E+000	5.67566e-06	0.0000000E+000	6	7.82765e-07
2	0	0	1	0	0	0	72.5	-0.300024	-0.300375	-0.00259135	7.69902e-06	7.69902e-06	41	-5.9651e-06	13	8.26601e-11	1.79171e-09	25910.9	937009	13.5	5.9651e-06	0.000000000000000E+000	5.9651e-06	0.0000000E+000	6	7.78376e-07
2	0	0	1	0	0	0	72.9	-0.300024	-0.300341	-0.00258969	6.66433e-06	6.66433e-06	41	-6.25251e-06	13	8.26601e-11	1.87804e-09	25910.9	392556	13.9	6.25251e-06	0.000000000000000E+000	6.25251e-06	0.0000000E+000	6	7.7779e-07
2	0	0	1	0	0	0	73.3	-0.300024	-0.300398	-0.00259688	5.62447e-06	5.62447e-06	41	-6.54136e-06	13	8.26601e-11	1.96481e-09	25910.9	0.000000000000000E+000	14.3	6.54136e-06	0.000000000000000E+000	6.54136e-06	0.0000000E+000	6	7.80097e-07
2	0	0	1	0	0	0	73.7	-0.300024	-0.300348	-0.00262027	4.57674e-06	4.57674e-06	41	-6.8324e-06	13	8.26601e-11	2.05223e-09	25910.9	495097	14.7	6.8324e-06	0.000000000000000E+000	6.8324e-06	0.0000000E+000	6	7.86993e-07
2	0	0	1	0	0	0	73.803	-0.300024	-0.300386	-0.00265508	4.30656e-06	4.30656e-06	41	-6.90745e-06	13	8.26601e-11	2.07477e-09	25910.9	2.16164e+06	14.803	6.90745e-06	0.000000000000000E+000	6.90745e-06	2509.92	6	7.9755e-07