File: Fig 3/Fig 3_RRDE-np-Fe2O3_100mvs_ring.mpt
mode	ox/red	error	control changes	counter inc.	time/s	control/V	Ewe/V	<I>/mA	cycle number	(Q-Qo)/C	I Range	step time/s	P/W
2	0	1	1	0	0.000000000000000E+000	-0.300025	-0.300134	-1.07052	1	0.0000000E+000	39	0.000000000000000E+000	0.000321298
2	0	0	1	0	0.1055	-0.310573	-0.310588	-0.00959721	1	-3.88389e-06	39	0.1	2.98077e-06
2	0	0	1	0	0.2155	-0.321572	-0.321608	-0.00792505	1	-5.04124e-06	39	0.21	2.54876e-06
2	1	0	1	0	0.3255	-0.33257	-0.332601	0.000319836	1	-4.01995e-06	39	0.000000000000000E+000	-1.06378e-07
2	0	0	1	0	0.4355	-0.343568	-0.343579	-0.00118375	1	-4.36575e-06	39	0.11	4.06712e-07
2	0	0	1	0	0.5455	-0.354566	-0.354602	-0.00469719	1	-4.93995e-06	39	0.22	1.66563e-06
2	0	0	1	0	0.6555	-0.365564	-0.36557	-0.00370855	1	-5.61361e-06	39	0.33	1.35573e-06
2	0	0	1	0	0.7655	-0.376562	-0.3766	-0.00499253	1	-6.35263e-06	39	0.44	1.88019e-06
2	0	0	1	0	0.8755	-0.38756	-0.387559	-0.00605925	1	-7.13423e-06	39	0.55	2.34832e-06
2	0	0	1	0	0.9855	-0.398559	-0.398578	-0.00534806	1	-7.98397e-06	39	0.66	2.13162e-06
2	0	0	1	0	1.0955	-0.409557	-0.409583	-0.00732263	1	-8.87946e-06	39	0.77	2.99922e-06
2	0	0	1	0	1.2053	-0.420555	-0.420585	-0.00603835	1	-9.81593e-06	39	0.8798	2.53964e-06
2	0	0	1	0	1.3153	-0.431553	-0.431565	-0.0069097	1	-1.07767e-05	39	0.9898	2.98198e-06
2	0	0	1	0	1.4253	-0.442551	-0.44256	-0.00727335	1	-1.17947e-05	39	1.0998	3.21889e-06
2	0	0	1	0	1.5353	-0.453549	-0.453561	-0.00621398	1	-1.28513e-05	39	1.2098	2.81842e-06
2	0	0	1	0	1.6453	-0.464548	-0.464568	-0.00895736	1	-1.39459e-05	39	1.3198	4.1613e-06
2	0	0	1	0	1.7553	-0.475546	-0.47557	-0.00700069	1	-1.50711e-05	39	1.4298	3.32932e-06
2	0	0	1	0	1.8653	-0.486544	-0.486561	-0.0092302	1	-1.62376e-05	39	1.5398	4.49106e-06
2	0	0	1	0	1.9753	-0.497542	-0.497535	-0.00915133	1	-1.74329e-05	39	1.6498	4.55311e-06
2	0	0	1	0	2.0853	-0.50854	-0.508542	-0.00900876	1	-1.86735e-05	39	1.7598	4.58133e-06
2	0	0	1	0	2.1953	-0.519538	-0.519568	-0.0106399	1	-1.99593e-05	39	1.8698	5.52814e-06
2	0	0	1	0	2.3053	-0.530536	-0.530541	-0.00871116	1	-2.12824e-05	39	1.9798	4.62162e-06
2	0	0	1	0	2.4151	-0.541535	-0.541558	-0.0113157	1	-2.2632e-05	39	2.0896	6.12809e-06
2	0	0	1	0	2.5251	-0.552533	-0.552534	-0.0104036	1	-2.40215e-05	39	2.1996	5.74833e-06
2	0	0	1	0	2.6351	-0.563531	-0.563519	-0.00963841	1	-2.5441e-05	39	2.3096	5.43143e-06
2	0	0	1	0	2.7451	-0.574529	-0.574542	-0.0123535	1	-2.6907e-05	39	2.4196	7.09758e-06
2	0	0	1	0	2.8551	-0.585527	-0.585535	-0.0101062	1	-2.84232e-05	39	2.5296	5.91753e-06
2	0	0	1	0	2.9651	-0.596525	-0.596523	-0.0129635	1	-2.99642e-05	39	2.6396	7.73299e-06
2	0	0	1	0	3.0751	-0.607524	-0.607533	-0.0123915	1	-3.15406e-05	39	2.7496	7.52827e-06
2	0	0	1	0	3.1851	-0.618522	-0.618527	-0.0127048	1	-3.31635e-05	39	2.8596	7.85825e-06
2	0	0	1	0	3.2951	-0.62952	-0.629531	-0.0141121	1	-3.48318e-05	39	2.9696	8.88402e-06
2	0	0	1	0	3.4051	-0.640518	-0.640527	-0.0118233	1	-3.65426e-05	39	3.0796	7.57311e-06
2	0	0	1	0	3.5151	-0.651516	-0.651502	-0.0149539	1	-3.82915e-05	39	3.1896	9.74248e-06
2	0	0	1	0	3.6249	-0.662514	-0.662512	-0.0134576	1	-4.00816e-05	39	3.2994	8.91581e-06
2	0	0	1	0	3.7349	-0.673513	-0.673516	-0.0137367	1	-4.19159e-05	39	3.4094	9.25192e-06
2	0	0	1	0	3.8449	-0.684511	-0.684507	-0.0155959	1	-4.37939e-05	39	3.5194	1.06755e-05
2	0	0	1	0	3.9549	-0.695509	-0.695485	-0.0136761	1	-4.57267e-05	39	3.6294	9.51155e-06
2	0	0	1	0	4.0649	-0.706507	-0.706492	-0.0172906	1	-4.77037e-05	39	3.7394	1.22157e-05
2	0	0	1	0	4.1749	-0.717505	-0.717497	-0.0154766	1	-4.97408e-05	39	3.8494	1.11044e-05
2	0	0	1	0	4.2849	-0.728503	-0.728496	-0.0169084	1	-5.18208e-05	39	3.9594	1.23177e-05
2	0	0	1	0	4.3949	-0.739501	-0.739506	-0.0180562	1	-5.39701e-05	39	4.0694	1.33527e-05
2	0	0	1	0	4.5049	-0.7505	-0.750498	-0.0163902	1	-5.61728e-05	39	4.1794	1.23008e-05
2	0	0	1	0	4.6149	-0.761498	-0.761493	-0.0197231	1	-5.8422e-05	39	4.2894	1.5019e-05
2	0	0	1	0	4.7249	-0.772496	-0.772499	-0.0174369	1	-6.07306e-05	39	4.3994	1.347e-05
2	0	0	1	0	4.8347	-0.783494	-0.783472	-0.0193169	1	-6.30927e-05	39	4.5092	1.51342e-05
2	0	0	1	0	4.9447	-0.794492	-0.794499	-0.0202376	1	-6.55331e-05	39	4.6192	1.60788e-05
2	0	0	1	0	5.0547	-0.80549	-0.805492	-0.0193918	1	-6.80294e-05	39	4.7292	1.56199e-05
2	0	0	1	0	5.1647	-0.816489	-0.816485	-0.0232317	1	-7.05896e-05	39	4.8392	1.89683e-05
2	0	0	1	0	5.2747	-0.827487	-0.827474	-0.0206758	1	-7.32292e-05	39	4.9492	1.71087e-05
2	0	0	1	0	5.3847	-0.838485	-0.838473	-0.0230498	1	-7.59471e-05	39	5.0592	1.93267e-05
2	0	0	1	0	5.4947	-0.849483	-0.849472	-0.0237118	1	-7.87495e-05	39	5.1692	2.01425e-05
2	0	0	1	0	5.6047	-0.860481	-0.860436	-0.0227199	1	-8.16549e-05	39	5.2792	1.9549e-05
2	0	0	1	0	5.7147	-0.871479	-0.87148	-0.0266898	1	-8.46473e-05	39	5.3892	2.32596e-05
2	0	0	1	0	5.8247	-0.882477	-0.882466	-0.024708	1	-8.7731e-05	39	5.4992	2.18039e-05
2	0	0	1	0	5.9347	-0.893476	-0.893488	-0.028178	1	-9.0916e-05	39	5.6092	2.51767e-05
2	0	0	1	0	6.0445	-0.904474	-0.904463	-0.0279943	1	-9.4197e-05	39	5.719	2.53198e-05
2	0	0	1	0	6.1545	-0.915472	-0.915447	-0.0280941	1	-9.75803e-05	39	5.829	2.57187e-05
2	0	0	1	0	6.2645	-0.92647	-0.926459	-0.0317538	1	-0.00010109	39	5.939	2.94186e-05
2	0	0	1	0	6.3745	-0.937468	-0.937459	-0.0300463	1	-0.000104759	39	6.049	2.81671e-05
2	0	0	1	0	6.4845	-0.948466	-0.948449	-0.0348335	1	-0.000108621	39	6.159	3.30378e-05
2	0	0	1	0	6.5945	-0.959464	-0.959442	-0.0358019	1	-0.000112729	39	6.269	3.43498e-05
2	0	0	1	0	6.7045	-0.970463	-0.970437	-0.0372192	1	-0.000117097	39	6.379	3.61189e-05
2	0	0	1	0	6.8145	-0.981461	-0.981424	-0.0439553	1	-0.000121794	39	6.489	4.31388e-05
2	0	0	1	0	6.9245	-0.992459	-0.992451	-0.047124	1	-0.000127063	39	6.599	4.67682e-05
2	0	0	1	0	7.0345	-1.00346	-1.0034	-0.0583409	1	-0.000133136	39	6.709	5.85393e-05
2	0	0	1	0	7.1444	-1.01446	-1.01443	-0.0678443	1	-0.000140293	39	6.8189	6.8823e-05
2	0	0	1	0	7.2543	-1.02545	-1.02545	-0.0802163	1	-0.000148729	39	6.9288	8.22582e-05
2	0	0	1	0	7.3643	-1.03645	-1.03646	-0.0945615	1	-0.000158562	39	7.0388	9.80088e-05
2	0	0	1	0	7.4743	-1.04745	-1.04743	-0.104916	1	-0.000169848	39	7.1488	0.000109893
2	0	0	1	0	7.5843	-1.05845	-1.05843	-0.121905	1	-0.000182615	39	7.2588	0.000129029
2	0	0	1	0	7.6943	-1.06945	-1.06944	-0.130841	1	-0.000196786	39	7.3688	0.000139927
2	0	0	1	0	7.8043	-1.08044	-1.08041	-0.141883	1	-0.000212158	39	7.4788	0.000153292
2	0	0	1	0	7.9143	-1.09144	-1.09145	-0.153093	1	-0.000228602	39	7.5888	0.000167093
2	0	0	1	0	8.0243	-1.10244	-1.10242	-0.159207	1	-0.000246068	39	7.6988	0.000175513
2	0	0	1	0	8.1343	-1.11344	-1.11343	-0.171215	1	-0.000264506	39	7.8088	0.000190635
2	0	0	1	0	8.2443	-1.12444	-1.12444	-0.1784	1	-0.000283981	39	7.9188	0.000200599
2	0	0	1	0	8.3541	-1.13544	-1.1354	-0.195534	1	-0.000304722	39	8.0286	0.000222009
2	0	0	1	0	8.4641	-1.14643	-1.14642	-0.239597	1	-0.000328423	39	8.1386	0.000274678
2	0	0	1	0	8.5741	-1.15743	-1.15742	-0.371348	1	-0.000361121	39	8.2486	0.000429805
2	0	0	1	0	8.6841	-1.16843	-1.16841	-0.64515	1	-0.000416454	39	8.3586	0.000753801
2	0	0	1	0	8.7941	-1.17943	-1.17941	-0.899815	1	-0.000502629	39	8.4686	0.00106125
2	0	0	1	0	8.9041	-1.19043	-1.19041	-1.0462	1	-0.000610763	39	8.5786	0.00124541
2	0	0	1	0	9.0141	-1.20142	-1.20142	-1.11454	1	-0.00073017	39	8.6886	0.00133904
2	0	0	1	0	9.1241	-1.21242	-1.21241	-1.1489	1	-0.00085548	39	8.7986	0.00139294
2	0	0	1	0	9.2341	-1.22342	-1.22338	-1.18721	1	-0.000984397	39	8.9086	0.00145242
2	0	0	1	0	9.3441	-1.23442	-1.2344	-1.21925	1	-0.0011167	39	9.0186	0.00150505
2	0	0	1	0	9.4541	-1.24542	-1.2454	-1.28175	1	-0.00125433	39	9.1286	0.0015963
2	0	0	1	0	9.5639	-1.25641	-1.25639	-1.36595	1	-0.00139964	39	9.2384	0.00171617
2	0	0	1	0	9.6739	-1.26741	-1.26739	-1.46725	1	-0.0015559	39	9.3484	0.00185958
2	0	0	1	0	9.7839	-1.27841	-1.27841	-1.60475	1	-0.00172552	39	9.4584	0.00205153
2	0	0	1	0	9.8939	-1.28941	-1.28938	-1.7987	1	-0.00191254	39	9.5684	0.00231921
2	0	0	1	0	10.0039	-1.30041	-1.30039	-2.11289	1	-0.00212627	39	9.6784	0.00274758
2	0	0	1	0	10.1139	-1.31141	-1.31137	-2.59903	1	-0.00238321	39	9.7884	0.00340828
2	0	0	1	0	10.2239	-1.3224	-1.32241	-3.30181	1	-0.00270582	39	9.8984	0.00436636
2	0	0	1	0	10.3339	-1.3334	-1.3334	-4.16098	1	-0.00311654	39	10.0084	0.00554825
2	0	0	1	0	10.4439	-1.3444	-1.34442	-5.12841	1	-0.00362832	39	10.1184	0.00689474
2	0	0	1	1	10.5261	-1.3474	-1.34741	-5.48802	2	-0.0040752	39	10.2006	0.00739461
2	0	0	1	1	10.6361	-1.3364	-1.33639	-4.73973	2	-0.00464025	39	10.3106	0.00633414
2	0	0	1	1	10.7461	-1.3254	-1.32539	-3.96073	2	-0.00511934	39	10.4206	0.00524951
2	0	0	1	1	10.8561	-1.31441	-1.31438	-3.22472	2	-0.0055142	39	10.5306	0.0042385
2	0	0	1	1	10.9661	-1.30341	-1.30339	-2.58737	2	-0.00583232	39	10.6406	0.00337234
2	0	0	1	1	11.0761	-1.29241	-1.2924	-2.0289	2	-0.00608412	39	10.7506	0.00262215
2	0	0	1	1	11.1861	-1.28141	-1.28138	-1.56368	2	-0.00628014	39	10.8606	0.00200366
2	0	0	1	1	11.2961	-1.27041	-1.27041	-1.21074	2	-0.00643141	39	10.9706	0.00153814
2	0	0	1	1	11.4061	-1.25941	-1.25937	-0.951182	2	-0.00654944	39	11.0806	0.00119789
2	0	0	1	1	11.5159	-1.24842	-1.2484	-0.750305	2	-0.0066421	39	11.1904	0.000936682
2	0	0	1	1	11.6259	-1.23742	-1.2374	-0.604959	2	-0.00671576	39	11.3004	0.000748579
2	0	0	1	1	11.7359	-1.22642	-1.2264	-0.504152	2	-0.006776	39	11.4104	0.000618294
2	0	0	1	1	11.8459	-1.21542	-1.21539	-0.419886	2	-0.00682617	39	11.5204	0.000510326
2	0	0	1	1	11.9559	-1.20442	-1.20438	-0.362024	2	-0.00686885	39	11.6304	0.000436013
2	0	0	1	1	12.0659	-1.19343	-1.19341	-0.313345	2	-0.00690544	39	11.7404	0.000373948
2	0	0	1	1	12.1759	-1.18243	-1.18238	-0.272292	2	-0.00693743	39	11.8504	0.000321953
2	0	0	1	1	12.2859	-1.17143	-1.17142	-0.239525	2	-0.00696532	39	11.9604	0.000280585
2	0	0	1	1	12.3959	-1.16043	-1.16039	-0.200997	2	-0.00698912	39	12.0704	0.000233236
2	0	0	1	1	12.5059	-1.14943	-1.14942	-0.171061	2	-0.00700934	39	12.1804	0.000196621
2	0	0	1	1	12.6159	-1.13843	-1.13843	-0.139866	2	-0.00702607	39	12.2904	0.000159227
2	0	0	1	1	12.7257	-1.12744	-1.12742	-0.107842	2	-0.00703944	39	12.4002	0.000121583
2	0	0	1	1	12.8357	-1.11644	-1.11643	-0.0860273	2	-0.00704975	39	12.5102	9.60438e-05
2	0	0	1	1	12.9457	-1.10544	-1.10541	-0.0585266	2	-0.00705738	39	12.6202	6.46956e-05
2	0	0	1	1	13.0557	-1.09444	-1.09444	-0.0426168	2	-0.00706262	39	12.7302	4.66417e-05
2	0	0	1	1	13.1657	-1.08344	-1.08342	-0.0223123	2	-0.00706579	39	12.8402	2.41735e-05
2	0	0	1	1	13.2757	-1.07245	-1.07244	-0.00553224	2	-0.0070671	39	12.9502	5.933e-06
2	1	0	1	1	13.3857	-1.06145	-1.06143	0.00671705	2	-0.00706666	39	0.07	-7.1297e-06
2	1	0	1	1	13.4957	-1.05045	-1.05042	0.0305764	2	-0.00706434	39	0.18	-3.21182e-05
2	1	0	1	1	13.6057	-1.03945	-1.03946	0.0490969	2	-0.00705973	39	0.29	-5.10341e-05
2	1	0	1	1	13.7157	-1.02845	-1.02844	0.0884203	2	-0.00705193	39	0.4	-9.09346e-05
2	1	0	1	1	13.8257	-1.01745	-1.01744	0.136893	2	-0.00703943	39	0.51	-0.000139281
2	1	0	1	1	13.9355	-1.00646	-1.00643	0.185197	2	-0.00702118	39	0.6198	-0.000186387
2	1	0	1	1	14.0455	-0.995459	-0.995453	0.20816	2	-0.00699891	39	0.7298	-0.000207213
2	1	0	1	1	14.1555	-0.98446	-0.984426	0.192346	2	-0.00697636	39	0.8398	-0.00018935
2	1	0	1	1	14.2655	-0.973462	-0.973427	0.18326	2	-0.00695545	39	0.9498	-0.00017839
2	1	0	1	1	14.3755	-0.962464	-0.962439	0.183967	2	-0.00693518	39	1.0598	-0.000177057
2	1	0	1	1	14.4855	-0.951466	-0.951467	0.195238	2	-0.00691404	39	1.1698	-0.000185762
2	1	0	1	1	14.5955	-0.940468	-0.940476	0.222166	2	-0.00689092	39	1.2798	-0.000208942
2	1	0	1	1	14.7055	-0.92947	-0.929445	0.247682	2	-0.00686487	39	1.3898	-0.000230207
2	1	0	1	1	14.8155	-0.918472	-0.918467	0.290477	2	-0.00683498	39	1.4998	-0.000266794
2	1	0	1	1	14.9255	-0.907473	-0.907448	0.332199	2	-0.00680054	39	1.6098	-0.000301453
2	1	0	1	1	15.0355	-0.896475	-0.896449	0.37516	2	-0.00676126	39	1.7198	-0.000336312
2	1	0	1	1	15.1453	-0.885477	-0.885462	0.415932	2	-0.00671748	39	1.8296	-0.000368292
2	1	0	1	1	15.2553	-0.874479	-0.874472	0.432949	2	-0.00667023	39	1.9396	-0.000378602
2	1	0	1	1	15.3653	-0.863481	-0.863476	0.438679	2	-0.00662167	39	2.0496	-0.000378788
2	1	0	1	1	15.4753	-0.852483	-0.852489	0.416857	2	-0.00657421	39	2.1596	-0.000355366
2	1	0	1	1	15.5853	-0.841484	-0.841498	0.388305	2	-0.00652958	39	2.2696	-0.000326757
2	1	0	1	1	15.6953	-0.830486	-0.83049	0.364284	2	-0.00648803	39	2.3796	-0.000302535
2	1	0	1	1	15.8053	-0.819488	-0.819489	0.338542	2	-0.00644916	39	2.4896	-0.000277432
2	1	0	1	1	15.9153	-0.80849	-0.808478	0.325907	2	-0.00641232	39	2.5996	-0.000263489
2	1	0	1	1	16.0253	-0.797492	-0.797469	0.310176	2	-0.00637708	39	2.7096	-0.000247355
2	1	0	1	1	16.1353	-0.786494	-0.786495	0.29745	2	-0.00634327	39	2.8196	-0.000233943
2	1	0	1	1	16.2451	-0.775495	-0.775481	0.288288	2	-0.00631087	39	2.9294	-0.000223562
2	1	0	1	1	16.3551	-0.764497	-0.764495	0.273097	2	-0.0062797	39	3.0394	-0.000208781
2	1	0	1	1	16.4651	-0.753499	-0.753494	0.265256	2	-0.00624981	39	3.1494	-0.000199869
2	1	0	1	1	16.5751	-0.742501	-0.74248	0.253774	2	-0.00622104	39	3.2594	-0.000188422
2	1	0	1	1	16.6851	-0.731503	-0.731505	0.2451	2	-0.00619326	39	3.3694	-0.000179292
2	1	0	1	1	16.7951	-0.720505	-0.720512	0.236886	2	-0.00616651	39	3.4794	-0.000170679
2	1	0	1	1	16.9051	-0.709506	-0.7095	0.226776	2	-0.0061407	39	3.5894	-0.000160897
2	1	0	1	1	17.0151	-0.698508	-0.698495	0.223939	2	-0.00611563	39	3.6994	-0.00015642
2	1	0	1	1	17.1251	-0.68751	-0.687495	0.217124	2	-0.0060911	39	3.8094	-0.000149272
2	1	0	1	1	17.2351	-0.676512	-0.676509	0.212713	2	-0.00606712	39	3.9194	-0.000143902
2	1	0	1	1	17.3451	-0.665514	-0.665505	0.210578	2	-0.00604359	39	4.0294	-0.000140141
2	1	0	1	1	17.4549	-0.654516	-0.654513	0.203626	2	-0.00602057	39	4.1392	-0.000133276
2	1	0	1	1	17.5649	-0.643517	-0.643507	0.204199	2	-0.00599789	39	4.2492	-0.000131404
2	1	0	1	1	17.6749	-0.632519	-0.632531	0.19997	2	-0.00597544	39	4.3592	-0.000126487
2	1	0	1	1	17.7849	-0.621521	-0.621501	0.200286	2	-0.00595312	39	4.4692	-0.000124478
2	1	0	1	1	17.8949	-0.610523	-0.610504	0.200477	2	-0.00593086	39	4.5792	-0.000122392
2	1	0	1	1	18.0049	-0.599525	-0.599518	0.197918	2	-0.00590862	39	4.6892	-0.000118656
2	1	0	1	1	18.1149	-0.588527	-0.588526	0.200944	2	-0.00588639	39	4.7992	-0.000118261
2	1	0	1	1	18.2249	-0.577529	-0.577526	0.197936	2	-0.00586417	39	4.9092	-0.000114314
2	1	0	1	1	18.3349	-0.56653	-0.566515	0.198958	2	-0.005842	39	5.0192	-0.000112712
2	1	0	1	1	18.4449	-0.555532	-0.555533	0.198936	2	-0.00581988	39	5.1292	-0.000110516
2	1	0	1	1	18.5549	-0.544534	-0.544516	0.191116	2	-0.00579815	39	5.2392	-0.000104066
2	1	0	1	1	18.6647	-0.533536	-0.533536	0.189011	2	-0.00577704	39	5.349	-0.000100844
2	1	0	1	1	18.7747	-0.522538	-0.522545	0.183167	2	-0.00575633	39	5.459	-9.57129e-05
2	1	0	1	1	18.8847	-0.51154	-0.511545	0.181266	2	-0.00573598	39	5.569	-9.27259e-05
2	1	0	1	1	18.9947	-0.500542	-0.500563	0.177534	2	-0.005716	39	5.679	-8.88667e-05
2	1	0	1	1	19.1047	-0.489543	-0.489529	0.172779	2	-0.00569637	39	5.789	-8.45804e-05
2	1	0	1	1	19.2147	-0.478545	-0.478536	0.170568	2	-0.00567724	39	5.899	-8.16227e-05
2	1	0	1	1	19.3247	-0.467547	-0.467546	0.163373	2	-0.00565859	39	6.009	-7.63843e-05
2	1	0	1	1	19.4347	-0.456549	-0.456551	0.163136	2	-0.0056403	39	6.119	-7.44797e-05
2	1	0	1	1	19.5447	-0.445551	-0.445551	0.160804	2	-0.00562227	39	6.229	-7.16463e-05
2	1	0	1	1	19.6547	-0.434553	-0.434566	0.156704	2	-0.00560453	39	6.339	-6.80981e-05
2	1	0	1	1	19.7647	-0.423554	-0.423581	0.154811	2	-0.00558714	39	6.449	-6.5575e-05
2	1	0	1	1	19.8745	-0.412556	-0.412567	0.150132	2	-0.00557012	39	6.5588	-6.19392e-05
2	1	0	1	1	19.9845	-0.401558	-0.401558	0.14926	2	-0.00555334	39	6.6688	-5.99367e-05
2	1	0	1	1	20.0945	-0.39056	-0.390559	0.146466	2	-0.00553682	39	6.7788	-5.72036e-05
2	1	0	1	1	20.2045	-0.379562	-0.379558	0.144405	2	-0.00552051	39	6.8888	-5.48103e-05
2	1	0	1	1	20.3145	-0.368564	-0.368554	0.1453	2	-0.00550435	39	6.9988	-5.35509e-05
2	1	0	1	1	20.4245	-0.357565	-0.357558	0.142892	2	-0.00548822	39	7.1088	-5.1092e-05
2	1	0	1	1	20.5345	-0.346567	-0.346575	0.142918	2	-0.00547228	39	7.2188	-4.95319e-05
2	1	0	1	1	20.6445	-0.335569	-0.335591	0.140691	2	-0.00545649	39	7.3288	-4.72146e-05
2	1	0	1	1	20.7545	-0.324571	-0.324569	0.139418	2	-0.0054408	39	7.4388	-4.52507e-05
2	1	0	1	1	20.8645	-0.313573	-0.313598	0.140221	2	-0.0054252	39	7.5488	-4.39731e-05
2	1	0	1	1	20.9745	-0.302575	-0.302608	0.137028	2	-0.0054097	39	7.6588	-4.14659e-05
2	1	0	1	1	21.0759	-0.307574	-0.307588	0.111647	2	-0.00539713	39	7.7602	-3.43413e-05
2	1	0	1	1	21.1859	-0.318572	-0.318583	0.094609	2	-0.0053861	39	7.8702	-3.01408e-05
2	1	0	1	1	21.2959	-0.32957	-0.329611	0.081153	2	-0.00537679	39	7.9802	-2.67489e-05
2	1	0	1	1	21.4059	-0.340568	-0.340575	0.0692841	2	-0.00536878	39	8.0902	-2.35964e-05
2	1	0	1	1	21.5159	-0.351566	-0.35159	0.062129	2	-0.00536185	39	8.2002	-2.18439e-05
2	1	0	1	1	21.6259	-0.362565	-0.362547	0.0526919	2	-0.00535581	39	8.3102	-1.91033e-05
2	1	0	1	1	21.7359	-0.373563	-0.37356	0.0472347	2	-0.00535056	39	8.4202	-1.7645e-05
2	1	0	1	1	21.8459	-0.384561	-0.384552	0.0418847	2	-0.00534595	39	8.5302	-1.61068e-05
2	1	0	1	1	21.9559	-0.395559	-0.395565	0.0369031	2	-0.00534188	39	8.6402	-1.45976e-05
2	1	0	1	1	22.0659	-0.406557	-0.406559	0.0354479	2	-0.00533824	39	8.7502	-1.44117e-05
2	1	0	1	1	22.1759	-0.417555	-0.417566	0.0287774	2	-0.00533502	39	8.8602	-1.20165e-05
2	1	0	1	1	22.2857	-0.428554	-0.428574	0.027501	2	-0.00533219	39	8.97	-1.17862e-05
2	1	0	1	1	22.3957	-0.439552	-0.439554	0.0239843	2	-0.00532965	39	9.08	-1.05424e-05
2	1	0	1	1	22.5057	-0.45055	-0.450562	0.0210513	2	-0.00532738	39	9.19	-9.48492e-06
2	1	0	1	1	22.6157	-0.461548	-0.461576	0.0207457	2	-0.00532537	39	9.3	-9.57573e-06
2	1	0	1	1	22.7257	-0.472546	-0.472563	0.0159974	2	-0.00532358	39	9.41	-7.55977e-06
2	1	0	1	1	22.8357	-0.483544	-0.483554	0.0167984	2	-0.00532201	39	9.52	-8.12295e-06
2	1	0	1	1	22.9457	-0.494543	-0.494535	0.0144652	2	-0.00532064	39	9.63	-7.15356e-06
2	1	0	1	1	23.0557	-0.505541	-0.505537	0.0126116	2	-0.00531942	39	9.74	-6.37563e-06
2	1	0	1	1	23.1657	-0.516539	-0.516534	0.0128453	2	-0.00531834	39	9.85	-6.63502e-06
2	1	0	1	1	23.2757	-0.527537	-0.527564	0.00914204	2	-0.0053174	39	9.96	-4.82301e-06
2	1	0	1	1	23.3855	-0.538535	-0.538546	0.0105046	2	-0.00531658	39	10.0698	-5.65721e-06
2	1	0	1	1	23.4955	-0.549533	-0.549547	0.00802698	2	-0.00531587	39	10.1798	-4.41121e-06
2	1	0	1	1	23.6055	-0.560531	-0.560556	0.00719268	2	-0.00531525	39	10.2898	-4.0319e-06
2	1	0	1	1	23.7155	-0.57153	-0.571541	0.00762724	2	-0.00531473	39	10.3998	-4.35928e-06
2	1	0	1	1	23.8255	-0.582528	-0.582539	0.00508163	2	-0.00531428	39	10.5098	-2.96025e-06
2	1	0	1	1	23.9355	-0.593526	-0.593553	0.00696155	2	-0.0053139	39	10.6198	-4.13205e-06
2	1	0	1	1	24.0455	-0.604524	-0.604541	0.00450538	2	-0.00531358	39	10.7298	-2.72369e-06
2	1	0	1	1	24.1555	-0.615522	-0.615545	0.00514724	2	-0.00531333	39	10.8398	-3.16836e-06
2	1	0	1	1	24.2655	-0.62652	-0.626536	0.00502717	2	-0.00531312	39	10.9498	-3.1497e-06
2	1	0	1	1	24.3755	-0.637519	-0.637548	0.0014769	2	-0.00531302	39	11.0598	-9.41595e-07
2	1	0	1	1	24.4855	-0.648517	-0.648522	0.00402551	2	-0.00531296	39	11.1698	-2.61063e-06
2	1	0	1	1	24.5953	-0.659515	-0.659524	0.00169286	2	-0.00531296	39	0.000000000000000E+000	-1.11649e-06
2	1	0	1	1	24.7053	-0.670513	-0.670502	0.00166971	2	-0.00531301	39	0.1	-1.11954e-06
2	0	0	1	1	24.8153	-0.681511	-0.681517	0.00147971	2	-0.00531312	39	0.21	-1.00844e-06
2	1	0	1	1	24.9253	-0.692509	-0.692513	-0.000563759	2	-0.00531329	39	0.32	3.90411e-07
2	1	0	1	1	25.0353	-0.703508	-0.70354	0.0015983	2	-0.00531353	39	0.43	-1.12447e-06
2	0	0	1	1	25.1453	-0.714506	-0.714526	-0.00163699	2	-0.00531383	39	0.54	1.16967e-06
2	1	0	1	1	25.2553	-0.725504	-0.725505	-6.62559e-05	2	-0.00531418	39	0.65	4.8069e-08
2	0	0	1	1	25.3653	-0.736502	-0.736528	-0.00159426	2	-0.00531459	39	0.76	1.17422e-06
2	0	0	1	1	25.4753	-0.7475	-0.747517	-0.00334954	2	-0.00531508	39	0.87	2.50384e-06
2	0	0	1	1	25.5853	-0.758498	-0.758494	-0.0016668	2	-0.00531565	39	0.98	1.26426e-06
2	0	0	1	1	25.6953	-0.769496	-0.769491	-0.00513845	2	-0.0053163	39	1.09	3.95399e-06
2	0	0	1	1	25.8051	-0.780495	-0.780512	-0.00419625	2	-0.00531707	39	1.1998	3.27522e-06
2	0	0	1	1	25.9151	-0.791493	-0.791494	-0.00548029	2	-0.00531794	39	1.3098	4.33762e-06
2	0	0	1	1	26.0251	-0.802491	-0.802496	-0.00785376	2	-0.00531892	39	1.4198	6.30261e-06
2	0	0	1	1	26.1351	-0.813489	-0.813475	-0.00647745	2	-0.00532006	39	1.5298	5.26924e-06
2	0	0	1	1	26.2451	-0.824487	-0.824511	-0.0116241	2	-0.00532136	39	1.6398	9.58423e-06
2	0	0	1	1	26.3551	-0.835485	-0.835494	-0.0103212	2	-0.00532281	39	1.7498	8.62327e-06
2	0	0	1	1	26.4651	-0.846483	-0.846478	-0.0137445	2	-0.00532445	39	1.8598	1.16344e-05
2	0	0	1	1	26.5751	-0.857482	-0.857487	-0.0161881	2	-0.00532628	39	1.9698	1.38811e-05
2	0	0	1	1	26.6851	-0.86848	-0.868457	-0.0150591	2	-0.00532831	39	2.0798	1.30782e-05
2	0	0	1	1	26.7951	-0.879478	-0.879477	-0.0203607	2	-0.00533055	39	2.1898	1.79067e-05
2	0	0	1	1	26.9051	-0.890476	-0.890482	-0.01942	2	-0.00533302	39	2.2998	1.72932e-05
2	0	0	1	1	27.0149	-0.901474	-0.901488	-0.024181	2	-0.00533575	39	2.4096	2.17989e-05
2	0	0	1	1	27.1249	-0.912472	-0.912463	-0.0267717	2	-0.00533878	39	2.5196	2.44282e-05
2	0	0	1	1	27.2349	-0.923471	-0.92346	-0.0287058	2	-0.00534218	39	2.6296	2.65087e-05
2	0	0	1	1	27.3449	-0.934469	-0.93448	-0.0372673	2	-0.00534605	39	2.7396	3.48255e-05
2	0	0	1	1	27.4549	-0.945467	-0.945456	-0.039214	2	-0.00535048	39	2.8496	3.70751e-05
2	0	0	1	1	27.5649	-0.956465	-0.95645	-0.0492337	2	-0.00535563	39	2.9596	4.70895e-05
2	0	0	1	1	27.6749	-0.967463	-0.967479	-0.057657	2	-0.00536171	39	3.0696	5.57819e-05
2	0	0	1	1	27.7849	-0.978461	-0.978467	-0.0670524	2	-0.00536891	39	3.1796	6.56086e-05
2	0	0	1	1	27.8949	-0.98946	-0.989457	-0.0856465	2	-0.00537756	39	3.2896	8.47435e-05
2	0	0	1	1	28.0049	-1.00046	-1.00045	-0.100848	2	-0.00538811	39	3.3996	0.000100893
2	0	0	1	1	28.1149	-1.01146	-1.01146	-0.131223	2	-0.00540116	39	3.5096	0.000132728
2	0	0	1	1	28.2247	-1.02245	-1.02246	-0.165257	2	-0.00541762	39	3.6194	0.000168969
2	0	0	1	1	28.3347	-1.03345	-1.03346	-0.215814	2	-0.0054388	39	3.7294	0.000223036
2	0	0	1	1	28.4447	-1.04445	-1.04446	-0.304102	2	-0.00546722	39	3.8394	0.000317624
2	0	0	1	1	28.5547	-1.05545	-1.05546	-0.432612	2	-0.0055079	39	3.9494	0.000456605
2	0	0	1	1	28.6647	-1.06645	-1.06644	-0.486737	2	-0.00556056	39	4.0594	0.000519077
2	0	0	1	1	28.7747	-1.07744	-1.07743	-0.369221	2	-0.00560835	39	4.1694	0.000397809
2	0	0	1	1	28.8847	-1.08844	-1.08846	-0.26466	2	-0.00564297	39	4.2794	0.000288072
2	0	0	1	1	28.9947	-1.09944	-1.09944	-0.218126	2	-0.0056694	39	4.3894	0.000239817
2	0	0	1	1	29.1047	-1.11044	-1.11042	-0.187214	2	-0.00569192	39	4.4994	0.000207886
2	0	0	1	1	29.2147	-1.12144	-1.12144	-0.177205	2	-0.00571224	39	4.6094	0.000198725
2	0	0	1	1	29.3247	-1.13244	-1.13245	-0.168205	2	-0.00573139	39	4.7194	0.000190483
2	0	0	1	1	29.4345	-1.14343	-1.14342	-0.168344	2	-0.00575018	39	4.8292	0.000192489
2	0	0	1	1	29.5445	-1.15443	-1.15441	-0.176155	2	-0.0057693	39	4.9392	0.000203356
2	0	0	1	1	29.6545	-1.16543	-1.16543	-0.181543	2	-0.00578925	39	5.0492	0.000211575
2	0	0	1	1	29.7645	-1.17643	-1.17642	-0.200476	2	-0.00581053	39	5.1592	0.000235844
2	0	0	1	1	29.8745	-1.18743	-1.18743	-0.214072	2	-0.00583359	39	5.2692	0.000254196
2	0	0	1	1	29.9845	-1.19842	-1.19841	-0.238737	2	-0.00585888	39	5.3792	0.000286105
2	0	0	1	1	30.0945	-1.20942	-1.20942	-0.270425	2	-0.00588709	39	5.4892	0.000327057
2	0	0	1	1	30.2045	-1.22042	-1.2204	-0.308523	2	-0.00591925	39	5.5992	0.000376521
2	0	0	1	1	30.3145	-1.23142	-1.23143	-0.368126	2	-0.00595671	39	5.7092	0.000453322
2	0	0	1	1	30.4245	-1.24242	-1.2424	-0.431528	2	-0.00600076	39	5.8192	0.000536129
2	0	0	1	1	30.5343	-1.25342	-1.25343	-0.521989	2	-0.00605332	39	5.929	0.000654275
2	0	0	1	1	30.6443	-1.26441	-1.26438	-0.641946	2	-0.00611736	39	6.039	0.000811663
2	0	0	1	1	30.7543	-1.27541	-1.2754	-0.794812	2	-0.00619627	39	6.149	0.00101371
2	0	0	1	1	30.8643	-1.28641	-1.28639	-0.993706	2	-0.00629449	39	6.259	0.00127829
2	0	0	1	1	30.9743	-1.29741	-1.29742	-1.24079	2	-0.00641733	39	6.369	0.00160983
2	0	0	1	1	31.0843	-1.30841	-1.30838	-1.57313	2	-0.00657172	39	6.479	0.00205824
2	0	0	1	1	31.1943	-1.3194	-1.31941	-2.01399	2	-0.00676816	39	6.589	0.00265728
2	0	0	1	1	31.3043	-1.3304	-1.33037	-2.56729	2	-0.0070193	39	6.699	0.00341545
2	0	0	1	1	31.4143	-1.3414	-1.34138	-3.25795	2	-0.00733885	39	6.809	0.00437015
2	0	0	0	0	31.501	-1.34995	-1.34987	-3.84214	3	-0.00764671	39	6.8957	0.0051864
2	0	0	1	0	31.6065	-1.3394	-1.3394	-3.33467	3	-0.00802606	39	7.0012	0.00446645
2	0	0	1	0	31.7165	-1.3284	-1.32839	-2.77383	3	-0.00836054	39	7.1112	0.00368474
2	0	0	1	0	31.8265	-1.3174	-1.31739	-2.25655	3	-0.0086353	39	7.2212	0.00297276
2	0	0	1	0	31.9365	-1.30641	-1.30638	-1.8129	3	-0.008858	39	7.3312	0.00236834
2	0	0	1	0	32.0465	-1.29541	-1.29539	-1.43847	3	-0.00903612	39	7.4412	0.00186338
2	0	0	1	0	32.1565	-1.28441	-1.28439	-1.12673	3	-0.00917645	39	7.5512	0.00144716
2	0	0	1	0	32.2665	-1.27341	-1.27338	-0.908282	3	-0.00928784	39	7.6612	0.00115659
2	0	0	1	0	32.3765	-1.26241	-1.26237	-0.725649	3	-0.00937668	39	7.7712	0.000916036
2	0	0	1	0	32.4863	-1.25142	-1.2514	-0.591279	3	-0.0094484	39	7.881	0.000739926
2	0	0	1	0	32.5963	-1.24042	-1.24042	-0.490796	3	-0.00950717	39	7.991	0.000608792
2	0	0	1	0	32.7063	-1.22942	-1.2294	-0.418153	3	-0.00955665	39	8.101	0.000514076
2	0	0	1	0	32.8163	-1.21842	-1.21839	-0.360892	3	-0.00959903	39	8.211	0.000439707
2	0	0	1	0	32.9263	-1.20742	-1.20739	-0.310517	3	-0.00963557	39	8.321	0.000374916
2	0	0	1	0	33.0363	-1.19642	-1.1964	-0.273117	3	-0.00966737	39	8.431	0.000326759
2	0	0	1	0	33.1463	-1.18543	-1.1854	-0.238976	3	-0.00969509	39	8.541	0.000283281
2	0	0	1	0	33.2563	-1.17443	-1.17441	-0.209038	3	-0.00971938	39	8.651	0.000245497
2	0	0	1	0	33.3663	-1.16343	-1.16341	-0.184548	3	-0.00974071	39	8.761	0.000214705
2	0	0	1	0	33.4763	-1.15243	-1.1524	-0.153674	3	-0.00975894	39	8.871	0.000177093
2	0	0	1	0	33.5863	-1.14143	-1.14143	-0.127723	3	-0.00977414	39	8.981	0.000145788
2	0	0	1	0	33.6961	-1.13044	-1.13042	-0.10232	3	-0.00978633	39	9.0908	0.000115665
2	0	0	1	0	33.8061	-1.11944	-1.11942	-0.0751159	3	-0.00979579	39	9.2008	8.40866e-05
2	0	0	1	0	33.9161	-1.10844	-1.10842	-0.058175	3	-0.00980279	39	9.3108	6.4482e-05
2	0	0	1	0	34.0261	-1.09744	-1.09742	-0.0344797	3	-0.00980755	39	9.4208	3.78386e-05
2	0	0	1	0	34.1361	-1.08644	-1.08642	-0.0195509	3	-0.00981028	39	9.5308	2.12405e-05
2	0	0	1	0	34.2461	-1.07545	-1.07545	-0.00495464	3	-0.00981126	39	9.6408	5.32847e-06
2	1	0	1	0	34.3561	-1.06445	-1.06445	0.0104188	3	-0.00981069	39	0.09	-1.10903e-05
2	1	0	1	0	34.4661	-1.05345	-1.05343	0.0195069	3	-0.00980867	39	0.2	-2.05492e-05
2	1	0	1	0	34.5761	-1.04245	-1.04242	0.0419767	3	-0.009805	39	0.31	-4.37572e-05
2	1	0	1	0	34.6861	-1.03145	-1.03145	0.0657526	3	-0.00979891	39	0.42	-6.78203e-05
2	1	0	1	0	34.7961	-1.02045	-1.02043	0.112442	3	-0.00978883	39	0.53	-0.000114739
2	1	0	1	0	34.9059	-1.00946	-1.00942	0.151725	3	-0.00977389	39	0.6398	-0.000153155
2	1	0	1	0	35.0159	-0.998458	-0.998429	0.153798	3	-0.0097564	39	0.7498	-0.000153556
2	1	0	1	0	35.1259	-0.98746	-0.987431	0.141435	3	-0.00973989	39	0.8598	-0.000139658
2	1	0	1	0	35.2359	-0.976462	-0.976443	0.129334	3	-0.00972491	39	0.9698	-0.000126287
2	1	0	1	0	35.3459	-0.965464	-0.965432	0.136161	3	-0.00971003	39	1.0798	-0.000131454
2	1	0	1	0	35.4559	-0.954465	-0.954419	0.149182	3	-0.00969412	39	1.1898	-0.000142382
2	1	0	1	0	35.5659	-0.943467	-0.94346	0.168294	3	-0.00967636	39	1.2998	-0.000158778
2	1	0	1	0	35.6759	-0.932469	-0.932432	0.203217	3	-0.0096557	39	1.4098	-0.000189486
2	1	0	1	0	35.7859	-0.921471	-0.921446	0.236366	3	-0.00963133	39	1.5198	-0.000217799
2	1	0	1	0	35.8959	-0.910473	-0.910448	0.279389	3	-0.00960263	39	1.6298	-0.000254369
2	1	0	1	0	36.0059	-0.899475	-0.899449	0.32244	3	-0.0095692	39	1.7398	-0.000290019
2	1	0	1	0	36.1157	-0.888476	-0.888446	0.360919	3	-0.00953119	39	1.8496	-0.000320657
2	1	0	1	0	36.2257	-0.877478	-0.877426	0.396782	3	-0.00948911	39	1.9596	-0.000348147
2	1	0	1	0	36.3357	-0.86648	-0.866455	0.40842	3	-0.00944439	39	2.0696	-0.000353877
2	1	0	1	0	36.4457	-0.855482	-0.855459	0.408688	3	-0.00939896	39	2.1796	-0.000349616
2	1	0	1	0	36.5557	-0.844484	-0.844454	0.388332	3	-0.0093548	39	2.2896	-0.000327928
2	1	0	1	0	36.6657	-0.833486	-0.833456	0.361256	3	-0.00931314	39	2.3996	-0.000301091
2	1	0	1	0	36.7757	-0.822488	-0.822454	0.340759	3	-0.00927426	39	2.5096	-0.000280258
2	1	0	1	0	36.8857	-0.811489	-0.811473	0.315934	3	-0.00923789	39	2.6196	-0.000256372
2	1	0	1	0	36.9957	-0.800491	-0.800457	0.299495	3	-0.00920372	39	2.7296	-0.000239733
2	1	0	1	0	37.1057	-0.789493	-0.789461	0.28136	3	-0.00917155	39	2.8396	-0.000222122
2	1	0	1	0	37.2157	-0.778495	-0.778479	0.263757	3	-0.0091412	39	2.9496	-0.000205329
2	1	0	1	0	37.3255	-0.767497	-0.767487	0.252036	3	-0.00911258	39	3.0594	-0.000193434
2	1	0	1	0	37.4355	-0.756499	-0.756475	0.236518	3	-0.00908541	39	3.1694	-0.00017892
2	1	0	1	0	37.5455	-0.7455	-0.745474	0.229388	3	-0.00905946	39	3.2794	-0.000171003
2	1	0	1	0	37.6555	-0.734502	-0.73448	0.217951	3	-0.00903459	39	3.3894	-0.000160081
2	1	0	1	0	37.7655	-0.723504	-0.72349	0.207738	3	-0.00901085	39	3.4994	-0.000150297
2	1	0	1	0	37.8755	-0.712506	-0.712472	0.202018	3	-0.00898808	39	3.6094	-0.000143932
2	1	0	1	0	37.9855	-0.701508	-0.701485	0.19108	3	-0.00896616	39	3.7194	-0.00013404
2	1	0	1	0	38.0955	-0.69051	-0.690496	0.186554	3	-0.00894505	39	3.8294	-0.000128815
2	1	0	1	0	38.2055	-0.679512	-0.67952	0.180468	3	-0.00892461	39	3.9394	-0.000122631
2	1	0	1	0	38.3155	-0.668513	-0.668523	0.176118	3	-0.00890462	39	4.0494	-0.000117739
2	1	0	1	0	38.4255	-0.657515	-0.657508	0.174616	3	-0.00888507	39	4.1594	-0.000114811
2	1	0	1	0	38.5353	-0.646517	-0.646504	0.168303	3	-0.008866	39	4.2692	-0.000108808
2	1	0	1	0	38.6453	-0.635519	-0.635513	0.168731	3	-0.00884717	39	4.3792	-0.000107231
2	1	0	1	0	38.7553	-0.624521	-0.624515	0.165313	3	-0.00882854	39	4.4892	-0.00010324
2	1	0	1	0	38.8653	-0.613523	-0.613522	0.16353	3	-0.00881013	39	4.5992	-0.000100329
2	1	0	1	0	38.9753	-0.602524	-0.602514	0.162643	3	-0.00879197	39	4.7092	-9.79949e-05
2	1	0	1	0	39.0853	-0.591526	-0.591505	0.15759	3	-0.00877405	39	4.8192	-9.32151e-05
2	1	0	1	0	39.1953	-0.580528	-0.580526	0.158453	3	-0.00875633	39	4.9292	-9.19859e-05
2	1	0	1	0	39.3053	-0.56953	-0.56949	0.156024	3	-0.00873876	39	5.0392	-8.88542e-05
2	1	0	1	0	39.4153	-0.558532	-0.558531	0.153766	3	-0.00872137	39	5.1492	-8.5883e-05
2	1	0	1	0	39.5253	-0.547534	-0.547509	0.152116	3	-0.00870433	39	5.2592	-8.32846e-05
2	1	0	1	0	39.6351	-0.536536	-0.536525	0.146429	3	-0.00868766	39	5.369	-7.85627e-05
2	1	0	1	0	39.7451	-0.525537	-0.525533	0.146322	3	-0.00867129	39	5.479	-7.68974e-05
2	1	0	1	0	39.8551	-0.514539	-0.514516	0.140994	3	-0.00865525	39	5.589	-7.25435e-05
2	1	0	1	0	39.9651	-0.503541	-0.503521	0.138262	3	-0.00863957	39	5.699	-6.9618e-05
2	1	0	1	0	40.0751	-0.492543	-0.492516	0.135268	3	-0.00862426	39	5.809	-6.66215e-05
2	1	0	1	0	40.1851	-0.481545	-0.481528	0.129972	3	-0.00860935	39	5.919	-6.25852e-05
2	1	0	1	0	40.2951	-0.470547	-0.470502	0.129451	3	-0.00859477	39	6.029	-6.09068e-05
2	1	0	1	0	40.4051	-0.459548	-0.459538	0.125171	3	-0.00858049	39	6.139	-5.75209e-05
2	1	0	1	0	40.5151	-0.44855	-0.448537	0.124335	3	-0.00856646	39	6.249	-5.57687e-05
2	1	0	1	0	40.6251	-0.437552	-0.43754	0.122789	3	-0.00855263	39	6.359	-5.37249e-05
2	1	0	1	0	40.7351	-0.426554	-0.426544	0.119579	3	-0.008539	39	6.469	-5.10058e-05
2	1	0	1	0	40.8449	-0.415556	-0.415548	0.12038	3	-0.00852554	39	6.5788	-5.00236e-05
2	1	0	1	0	40.9549	-0.404558	-0.404534	0.117054	3	-0.0085122	39	6.6888	-4.73525e-05
2	1	0	1	0	41.0649	-0.393559	-0.393539	0.117866	3	-0.00849893	39	6.7988	-4.63847e-05
2	1	0	1	0	41.1749	-0.382561	-0.382532	0.116842	3	-0.00848576	39	6.9088	-4.46957e-05
2	1	0	1	0	41.2849	-0.371563	-0.371533	0.113943	3	-0.00847277	39	7.0188	-4.23336e-05
2	1	0	1	0	41.3949	-0.360565	-0.360524	0.114392	3	-0.00845995	39	7.1288	-4.12409e-05
2	1	0	1	0	41.5049	-0.349567	-0.349537	0.11117	3	-0.00844729	39	7.2388	-3.88579e-05
2	1	0	1	0	41.6149	-0.338569	-0.338553	0.111438	3	-0.00843476	39	7.3488	-3.77277e-05
2	1	0	1	0	41.7249	-0.327571	-0.327569	0.110297	3	-0.00842232	39	7.4588	-3.61297e-05
2	1	0	1	0	41.8349	-0.316572	-0.316548	0.107597	3	-0.00841002	39	7.5688	-3.40595e-05
2	1	0	1	0	41.9449	-0.305574	-0.305553	0.10929	3	-0.00839784	39	7.6788	-3.33939e-05
2	1	0	1	0	42.0463	-0.304574	-0.304565	0.0934773	3	-0.0083874	39	7.7802	-2.84699e-05
2	1	0	1	0	42.1563	-0.315573	-0.315565	0.0800137	3	-0.00837822	39	7.8902	-2.52495e-05
2	1	0	1	0	42.2663	-0.326571	-0.326563	0.0707113	3	-0.00837019	39	8.0002	-2.30917e-05
2	1	0	1	0	42.3763	-0.337569	-0.337547	0.0637555	3	-0.00836308	39	8.1102	-2.15205e-05
2	1	0	1	0	42.4863	-0.348567	-0.348545	0.0559696	3	-0.00835673	39	8.2202	-1.95079e-05
2	1	0	1	0	42.5963	-0.359565	-0.359554	0.0535075	3	-0.00835096	39	8.3302	-1.92389e-05
2	1	0	1	0	42.7063	-0.370563	-0.370541	0.0481275	3	-0.0083457	39	8.4402	-1.78332e-05
2	1	0	1	0	42.8163	-0.381561	-0.381547	0.0447681	3	-0.00834088	39	8.5502	-1.70812e-05
2	1	0	1	0	42.9263	-0.39256	-0.392508	0.041886	3	-0.00833645	39	8.6602	-1.64406e-05
2	1	0	1	0	43.0363	-0.403558	-0.403544	0.0374612	3	-0.00833237	39	8.7702	-1.51172e-05
2	1	0	1	0	43.1463	-0.414556	-0.414533	0.0369622	3	-0.00832854	39	8.8802	-1.53221e-05
2	1	0	1	0	43.2561	-0.425554	-0.425557	0.0327094	3	-0.00832497	39	8.99	-1.39197e-05
2	1	0	1	0	43.3661	-0.436552	-0.436523	0.0314891	3	-0.00832165	39	9.1	-1.37457e-05
2	1	0	1	0	43.4761	-0.44755	-0.447524	0.0303574	3	-0.00831855	39	9.21	-1.35857e-05
2	1	0	1	0	43.5861	-0.458549	-0.458539	0.0270918	3	-0.00831566	39	9.32	-1.24226e-05
2	1	0	1	0	43.6961	-0.469547	-0.469508	0.0286052	3	-0.00831292	39	9.43	-1.34304e-05
2	1	0	1	0	43.8061	-0.480545	-0.480523	0.024667	3	-0.00831032	39	9.54	-1.1853e-05
2	1	0	1	0	43.9161	-0.491543	-0.49151	0.0246019	3	-0.00830787	39	9.65	-1.20921e-05
2	1	0	1	0	44.0261	-0.502541	-0.50253	0.0231675	3	-0.00830554	39	9.76	-1.16424e-05
2	1	0	1	0	44.1361	-0.513539	-0.513519	0.0208341	3	-0.00830333	39	9.87	-1.06987e-05
2	1	0	1	0	44.2461	-0.524537	-0.524538	0.0226299	3	-0.00830123	39	9.98	-1.18702e-05
2	1	0	1	0	44.3561	-0.535536	-0.535529	0.019511	3	-0.00829921	39	10.09	-1.04487e-05
2	1	0	1	0	44.4659	-0.546534	-0.54651	0.0203024	3	-0.00829727	39	10.1998	-1.10954e-05
2	1	0	1	0	44.5759	-0.557532	-0.557512	0.0198328	3	-0.0082954	39	10.3098	-1.1057e-05
2	1	0	1	0	44.6859	-0.56853	-0.568515	0.0176529	3	-0.00829362	39	10.4198	-1.00359e-05
2	1	0	1	0	44.7959	-0.579528	-0.579539	0.0187765	3	-0.00829193	39	10.5298	-1.08817e-05
2	1	0	1	0	44.9059	-0.590526	-0.590523	0.015497	3	-0.0082903	39	10.6398	-9.15133e-06
2	1	0	1	0	45.0159	-0.601525	-0.601532	0.016943	3	-0.00828875	39	10.7498	-1.01917e-05
2	1	0	1	0	45.1259	-0.612523	-0.612536	0.0161453	3	-0.00828722	39	10.8598	-9.88957e-06
2	1	0	1	0	45.2359	-0.623521	-0.623521	0.0150186	3	-0.00828575	39	10.9698	-9.36443e-06
2	1	0	1	0	45.3459	-0.634519	-0.634516	0.0167326	3	-0.00828435	39	11.0798	-1.06171e-05
2	1	0	1	0	45.4559	-0.645517	-0.645516	0.0132535	3	-0.00828299	39	11.1898	-8.55532e-06
2	1	0	1	0	45.5658	-0.656509	-0.656492	0.0152643	3	-0.00828169	39	11.2997	-1.00209e-05
2	1	0	1	0	45.6757	-0.667514	-0.667498	0.0135089	3	-0.00828047	39	11.4096	-9.01718e-06
2	1	0	1	0	45.7857	-0.678512	-0.678503	0.0121512	3	-0.00827932	39	11.5196	-8.24463e-06
2	1	0	1	0	45.8957	-0.68951	-0.689506	0.0132571	3	-0.00827821	39	11.6296	-9.14086e-06
2	1	0	1	0	46.0057	-0.700508	-0.700484	0.0110999	3	-0.00827715	39	11.7396	-7.77532e-06
2	1	0	1	0	46.1157	-0.711506	-0.711483	0.0126501	3	-0.00827614	39	11.8496	-9.00036e-06
2	1	0	1	0	46.2257	-0.722504	-0.722508	0.0110536	3	-0.00827522	39	11.9596	-7.98632e-06
2	1	0	1	0	46.3357	-0.733502	-0.733538	0.00978086	3	-0.00827435	39	12.0696	-7.17463e-06
2	1	0	1	0	46.4457	-0.744501	-0.744484	0.0106712	3	-0.00827356	39	12.1796	-7.94454e-06
2	1	0	1	0	46.5557	-0.755499	-0.755496	0.00746716	3	-0.00827283	39	12.2896	-5.64142e-06
2	1	0	1	0	46.6657	-0.766497	-0.766501	0.00900308	3	-0.00827216	39	12.3996	-6.90087e-06
2	1	0	1	0	46.7755	-0.777495	-0.777472	0.00629194	3	-0.0082716	39	12.5094	-4.89181e-06
2	1	0	1	0	46.8855	-0.788493	-0.788503	0.00563871	3	-0.00827117	39	12.6194	-4.44614e-06
2	1	0	1	0	46.9955	-0.799491	-0.799454	0.00628652	3	-0.00827085	39	12.7294	-5.02578e-06
2	1	0	1	0	47.1055	-0.81049	-0.810476	0.00181438	3	-0.0082707	39	12.8394	-1.47051e-06
2	1	0	1	0	47.2155	-0.821488	-0.821478	0.00333657	3	-0.00827072	39	0.04	-2.74092e-06
2	0	0	1	0	47.3255	-0.832486	-0.832472	-0.00114329	3	-0.00827093	39	0.15	9.51759e-07
2	1	0	1	0	47.4355	-0.843484	-0.84349	-0.0024378	3	-0.00827134	39	0.26	2.05626e-06
2	0	0	1	0	47.5455	-0.854482	-0.854474	-0.00305091	3	-0.00827198	39	0.37	2.60692e-06
2	0	0	1	0	47.6555	-0.86548	-0.865461	-0.00825189	3	-0.00827286	39	0.48	7.14169e-06
2	0	0	1	0	47.7655	-0.876478	-0.876466	-0.00720691	3	-0.00827401	39	0.59	6.3166e-06
2	0	0	1	0	47.8755	-0.887477	-0.887458	-0.0122758	3	-0.00827544	39	0.7	1.08943e-05
2	0	0	1	0	47.9853	-0.898475	-0.898449	-0.0141043	3	-0.00827718	39	0.8098	1.2672e-05
2	0	0	1	0	48.0953	-0.909473	-0.90948	-0.0169265	3	-0.00827929	39	0.9198	1.53943e-05
2	0	0	1	0	48.2053	-0.920471	-0.92044	-0.0233306	3	-0.0082818	39	1.0298	2.14745e-05
2	0	0	1	0	48.3153	-0.931469	-0.931436	-0.0249741	3	-0.00828476	39	1.1398	2.32618e-05
2	0	0	1	0	48.4253	-0.942467	-0.94245	-0.0327483	3	-0.0082882	39	1.2498	3.08636e-05
2	0	0	1	0	48.5353	-0.953466	-0.953437	-0.0361727	3	-0.00829221	39	1.3598	3.44883e-05
2	0	0	1	0	48.6453	-0.964464	-0.964444	-0.0423096	3	-0.00829688	39	1.4698	4.08052e-05
2	0	0	1	0	48.7553	-0.975462	-0.975429	-0.0516855	3	-0.00830232	39	1.5798	5.04156e-05
2	0	0	1	0	48.8653	-0.98646	-0.986456	-0.0584444	3	-0.00830869	39	1.6898	5.76528e-05
2	0	0	1	0	48.9753	-0.997458	-0.997429	-0.0746901	3	-0.00831628	39	1.7998	7.4498e-05
2	0	0	1	0	49.0853	-1.00846	-1.00841	-0.0886227	3	-0.00832544	39	1.9098	8.93677e-05
2	0	0	1	0	49.1951	-1.01945	-1.01944	-0.11133	3	-0.00833667	39	2.0196	0.000113494
2	0	0	1	0	49.3051	-1.03045	-1.03045	-0.144106	3	-0.00835078	39	2.1296	0.000148494
2	0	0	1	0	49.4151	-1.04145	-1.04145	-0.197026	3	-0.00836959	39	2.2396	0.000205193
2	0	0	1	0	49.5251	-1.05245	-1.05242	-0.268661	3	-0.00839584	39	2.3496	0.000282742
2	0	0	1	0	49.6351	-1.06345	-1.06344	-0.26373	3	-0.00842604	39	2.4596	0.000280461
2	0	0	1	0	49.7451	-1.07445	-1.07443	-0.227665	3	-0.00845378	39	2.5696	0.000244609
2	0	0	1	0	49.8551	-1.08544	-1.08543	-0.183251	3	-0.00847654	39	2.6796	0.000198905
2	0	0	1	0	49.9651	-1.09644	-1.09643	-0.147743	3	-0.00849489	39	2.7896	0.00016199
2	0	0	1	0	50.0751	-1.10744	-1.1074	-0.133882	3	-0.00851062	39	2.8996	0.000148261
2	0	0	1	0	50.1851	-1.11844	-1.11844	-0.122245	3	-0.00852494	39	3.0096	0.000136724
2	0	0	1	0	50.2951	-1.12944	-1.12943	-0.120096	3	-0.00853862	39	3.1196	0.00013564
2	0	0	1	0	50.4049	-1.14043	-1.14042	-0.122613	3	-0.00855213	39	3.2294	0.00013983
2	0	0	1	0	50.5149	-1.15143	-1.15142	-0.124351	3	-0.00856606	39	3.3394	0.000143181
2	0	0	1	0	50.6249	-1.16243	-1.16241	-0.138069	3	-0.00858083	39	3.4494	0.000160493
2	0	0	1	0	50.7349	-1.17343	-1.17341	-0.147028	3	-0.00859678	39	3.5594	0.000172525
2	0	0	1	0	50.8449	-1.18443	-1.18439	-0.164899	3	-0.00861429	39	3.6694	0.000195305
2	0	0	1	0	50.9549	-1.19542	-1.19542	-0.185957	3	-0.00863379	39	3.7794	0.000222296
2	0	0	1	0	51.0649	-1.20642	-1.20642	-0.208447	3	-0.00865577	39	3.8894	0.000251475
2	0	0	1	0	51.1749	-1.21742	-1.21739	-0.245428	3	-0.00868097	39	3.9994	0.000298782
2	0	0	1	0	51.2849	-1.22842	-1.22842	-0.28602	3	-0.00871042	39	4.1094	0.000351352
2	0	0	1	0	51.3949	-1.23942	-1.23939	-0.344633	3	-0.00874537	39	4.2194	0.000427135
2	0	0	1	0	51.5049	-1.25042	-1.25042	-0.41659	3	-0.00878733	39	4.3294	0.000520912
2	0	0	1	0	51.6147	-1.26141	-1.26139	-0.504535	3	-0.00883815	39	4.4392	0.000636415
2	0	0	1	0	51.7247	-1.27241	-1.27239	-0.619767	3	-0.00890016	39	4.5492	0.000788584
2	0	0	1	0	51.8347	-1.28341	-1.28339	-0.752398	3	-0.00897567	39	4.6592	0.000965619
2	0	0	1	0	51.9447	-1.29441	-1.29439	-0.93071	3	-0.00906818	39	4.7692	0.0012047
2	0	0	1	0	52.0547	-1.30541	-1.30538	-1.15107	3	-0.00918247	39	4.8792	0.00150259
2	0	0	1	0	52.1647	-1.3164	-1.31636	-1.42342	3	-0.00932402	39	4.9892	0.00187374
2	0	0	1	0	52.2747	-1.3274	-1.32735	-1.76441	3	-0.00949947	39	5.0992	0.00234199
2	0	0	1	0	52.3847	-1.3384	-1.33836	-2.16016	3	-0.00971517	39	5.2092	0.00289106
2	0	0	1	0	52.4947	-1.3494	-1.34937	-2.66515	3	-0.00998025	39	5.3192	0.00359627
2	0	0	1	1	52.5769	-1.3424	-1.34237	-2.39751	3	-0.0101897	39	5.4014	0.00321835
2	0	0	1	1	52.6869	-1.3314	-1.33137	-1.97505	3	-0.0104296	39	5.5114	0.00262952
2	0	0	1	1	52.7969	-1.3204	-1.32036	-1.61284	3	-0.0106261	39	5.6214	0.00212952
2	0	0	1	1	52.9069	-1.30941	-1.30936	-1.29931	3	-0.0107854	39	5.7314	0.00170126
2	0	0	1	1	53.0169	-1.29841	-1.29835	-1.04466	3	-0.0109134	39	5.8414	0.00135634
2	0	0	1	1	53.1269	-1.28741	-1.28736	-0.851143	3	-0.0110169	39	5.9514	0.00109572
2	0	0	1	1	53.2369	-1.27641	-1.27636	-0.688156	3	-0.0111007	39	6.0614	0.000878334
2	0	0	1	1	53.3469	-1.26541	-1.26538	-0.566236	3	-0.0111692	39	6.1714	0.000716504
2	0	0	1	1	53.4569	-1.25442	-1.25438	-0.474343	3	-0.0112258	39	6.2814	0.000595004
2	0	0	1	1	53.5667	-1.24342	-1.24338	-0.40046	3	-0.0112734	39	6.3912	0.000497923
2	0	0	1	1	53.6767	-1.23242	-1.2324	-0.34905	3	-0.0113141	39	6.5012	0.000430168
2	0	0	1	1	53.7867	-1.22142	-1.22139	-0.301309	3	-0.0113494	39	6.6112	0.000368017
2	0	0	1	1	53.8967	-1.21042	-1.21038	-0.265229	3	-0.0113802	39	6.7212	0.000321029
2	0	0	1	1	54.0067	-1.19942	-1.19936	-0.236589	3	-0.0114074	39	6.8312	0.000283757
2	0	0	1	1	54.1167	-1.18843	-1.18838	-0.209311	3	-0.0114316	39	6.9412	0.000248741
2	0	0	1	1	54.2267	-1.17743	-1.1774	-0.189543	3	-0.0114533	39	7.0512	0.000223168
2	0	0	1	1	54.3367	-1.16643	-1.16641	-0.163609	3	-0.0114724	39	7.1612	0.000190834
2	0	0	1	1	54.4467	-1.15543	-1.15538	-0.140413	3	-0.0114889	39	7.2712	0.000162231
2	0	0	1	1	54.5567	-1.14443	-1.14439	-0.118595	3	-0.0115028	39	7.3812	0.000135719
2	0	0	1	1	54.6666	-1.13343	-1.1334	-0.0920801	3	-0.0115141	39	7.4911	0.000104363
2	0	0	1	1	54.7765	-1.12244	-1.12241	-0.0752724	3	-0.011523	39	7.601	8.44865e-05
2	0	0	1	1	54.8865	-1.11144	-1.11138	-0.0526584	3	-0.0115297	39	7.711	5.85234e-05
2	0	0	1	1	54.9965	-1.10044	-1.10038	-0.0374571	3	-0.0115343	39	7.821	4.12169e-05
2	0	0	1	1	55.1065	-1.08944	-1.08942	-0.0231141	3	-0.0115373	39	7.931	2.51809e-05
2	0	0	1	1	55.2165	-1.07844	-1.0784	-0.00696297	3	-0.0115386	39	8.041	7.50885e-06
2	1	0	1	1	55.3265	-1.06745	-1.06741	0.0011679	3	-0.0115385	39	0.05	-1.24664e-06
2	1	0	1	1	55.4365	-1.05645	-1.0564	0.0160464	3	-0.0115373	39	0.16	-1.69513e-05
2	1	0	1	1	55.5465	-1.04545	-1.04542	0.0254739	3	-0.0115348	39	0.27	-2.66309e-05
2	1	0	1	1	55.6565	-1.03445	-1.0344	0.0431382	3	-0.0115307	39	0.38	-4.4622e-05
2	1	0	1	1	55.7665	-1.02345	-1.0234	0.0735437	3	-0.0115241	39	0.49	-7.52648e-05
2	1	0	1	1	55.8763	-1.01246	-1.0124	0.0931299	3	-0.0115144	39	0.5998	-9.42852e-05
2	1	0	1	1	55.9863	-1.00146	-1.00141	0.096796	3	-0.0115034	39	0.7098	-9.69327e-05
2	1	0	1	1	56.0963	-0.990459	-0.990429	0.083149	3	-0.0114932	39	0.8198	-8.23532e-05
2	1	0	1	1	56.2063	-0.979461	-0.979413	0.0815816	3	-0.0114839	39	0.9298	-7.99021e-05
2	1	0	1	1	56.3163	-0.968463	-0.968431	0.088012	3	-0.0114744	39	1.0398	-8.52336e-05
2	1	0	1	1	56.4263	-0.957465	-0.957408	0.0951451	3	-0.011464	39	1.1498	-9.10927e-05
2	1	0	1	1	56.5363	-0.946467	-0.946432	0.113551	3	-0.0114523	39	1.2598	-0.000107469
2	1	0	1	1	56.6463	-0.935469	-0.935451	0.13232	3	-0.0114385	39	1.3698	-0.000123779
2	1	0	1	1	56.7563	-0.92447	-0.92445	0.159474	3	-0.0114221	39	1.4798	-0.000147426
2	1	0	1	1	56.8663	-0.913472	-0.913451	0.190891	3	-0.0114026	39	1.5898	-0.000174369
2	1	0	1	1	56.9763	-0.902474	-0.902445	0.221421	3	-0.0113796	39	1.6998	-0.00019982
2	1	0	1	1	57.0861	-0.891476	-0.891433	0.257338	3	-0.0113531	39	1.8096	-0.0002294
2	1	0	1	1	57.1961	-0.880478	-0.880437	0.284581	3	-0.011323	39	1.9196	-0.000250555
2	1	0	1	1	57.3061	-0.86948	-0.869458	0.308099	3	-0.0112899	39	2.0296	-0.000267879
2	1	0	1	1	57.4161	-0.858481	-0.858454	0.320316	3	-0.011255	39	2.1396	-0.000274976
2	1	0	1	1	57.5261	-0.847483	-0.847461	0.315524	3	-0.0112195	39	2.2496	-0.000267394
2	1	0	1	1	57.6361	-0.836485	-0.83646	0.307883	3	-0.0111849	39	2.3596	-0.000257532
2	1	0	1	1	57.7461	-0.825487	-0.825458	0.289167	3	-0.0111518	39	2.4696	-0.000238695
2	1	0	1	1	57.8561	-0.814489	-0.814464	0.272165	3	-0.0111206	39	2.5796	-0.000221668
2	1	0	1	1	57.9661	-0.803491	-0.803454	0.253761	3	-0.0110915	39	2.6896	-0.000203885
2	1	0	1	1	58.0761	-0.792493	-0.792475	0.235047	3	-0.0110643	39	2.7996	-0.000186269
2	1	0	1	1	58.1861	-0.781494	-0.781482	0.223301	3	-0.0110388	39	2.9096	-0.000174506
2	1	0	1	1	58.2959	-0.770496	-0.770479	0.205784	3	-0.0110149	39	3.0194	-0.000158552
2	1	0	1	1	58.4059	-0.759498	-0.75949	0.193921	3	-0.0109926	39	3.1294	-0.000147281
2	1	0	1	1	58.5159	-0.7485	-0.748498	0.184362	3	-0.0109716	39	3.2394	-0.000137995
2	1	0	1	1	58.6259	-0.737502	-0.737525	0.172973	3	-0.0109516	39	3.3494	-0.000127572
2	1	0	1	1	58.7359	-0.726504	-0.726508	0.166536	3	-0.0109326	39	3.4594	-0.00012099
2	1	0	1	1	58.8459	-0.715505	-0.715498	0.156099	3	-0.0109146	39	3.5694	-0.000111688
2	1	0	1	1	58.9559	-0.704507	-0.704494	0.150909	3	-0.0108974	39	3.6794	-0.000106314
2	1	0	1	1	59.0659	-0.693509	-0.693487	0.145891	3	-0.0108808	39	3.7894	-0.000101173
2	1	0	1	1	59.1759	-0.682511	-0.682517	0.139692	3	-0.0108648	39	3.8994	-9.53421e-05
2	1	0	1	1	59.2859	-0.671513	-0.671512	0.136899	3	-0.0108493	39	4.0094	-9.19291e-05
2	1	0	1	1	59.3959	-0.660515	-0.660492	0.13084	3	-0.0108343	39	4.1194	-8.64188e-05
2	1	0	1	1	59.5057	-0.649516	-0.6495	0.128846	3	-0.0108197	39	4.2292	-8.36851e-05
2	1	0	1	1	59.6157	-0.638518	-0.638525	0.125936	3	-0.0108054	39	4.3392	-8.04131e-05
2	1	0	1	1	59.7257	-0.62752	-0.627535	0.120788	3	-0.0107915	39	4.4492	-7.57986e-05
2	1	0	1	1	59.8357	-0.616522	-0.616506	0.121424	3	-0.0107779	39	4.5592	-7.48587e-05
2	1	0	1	1	59.9457	-0.605524	-0.605533	0.116894	3	-0.0107645	39	4.6692	-7.0783e-05
2	1	0	1	1	60.0557	-0.594526	-0.594498	0.116826	3	-0.0107513	39	4.7792	-6.94525e-05
2	1	0	1	1	60.1657	-0.583528	-0.583512	0.114936	3	-0.0107383	39	4.8892	-6.70666e-05
2	1	0	1	1	60.2757	-0.572529	-0.572527	0.11181	3	-0.0107255	39	4.9992	-6.40145e-05
2	1	0	1	1	60.3857	-0.561531	-0.561547	0.112465	3	-0.0107128	39	5.1092	-6.31546e-05
2	1	0	1	1	60.4957	-0.550533	-0.550543	0.10816	3	-0.0107004	39	5.2192	-5.9547e-05
2	1	0	1	1	60.6057	-0.539535	-0.539533	0.107399	3	-0.0106882	39	5.3292	-5.79453e-05
2	1	0	1	1	60.7155	-0.528537	-0.528522	0.104202	3	-0.0106763	39	5.439	-5.50733e-05
2	1	0	1	1	60.8255	-0.517539	-0.517554	0.100773	3	-0.0106647	39	5.549	-5.21556e-05
2	1	0	1	1	60.9355	-0.506541	-0.506573	0.100724	3	-0.0106534	39	5.659	-5.10241e-05
2	1	0	1	1	61.0455	-0.495542	-0.495501	0.0960668	3	-0.0106423	39	5.769	-4.76012e-05
2	1	0	1	1	61.1555	-0.484544	-0.484557	0.0958515	3	-0.0106314	39	5.879	-4.64455e-05
2	1	0	1	1	61.2655	-0.473546	-0.473562	0.0930591	3	-0.0106207	39	5.989	-4.40693e-05
2	1	0	1	1	61.3755	-0.462548	-0.462555	0.0908527	3	-0.0106103	39	6.099	-4.20244e-05
2	1	0	1	1	61.4855	-0.45155	-0.451555	0.0928508	3	-0.0105999	39	6.209	-4.19272e-05
2	1	0	1	1	61.5955	-0.440552	-0.440569	0.088571	3	-0.0105896	39	6.319	-3.90217e-05
2	1	0	1	1	61.7055	-0.429553	-0.429583	0.0890433	3	-0.0105795	39	6.429	-3.82515e-05
2	1	0	1	1	61.8154	-0.418551	-0.418586	0.0868296	3	-0.0105696	39	6.5389	-3.63456e-05
2	1	0	1	1	61.9253	-0.407557	-0.407562	0.0848104	3	-0.0105599	39	6.6488	-3.45655e-05
2	1	0	1	1	62.0353	-0.396559	-0.396555	0.0856306	3	-0.0105502	39	6.7588	-3.39572e-05
2	1	0	1	1	62.1453	-0.385561	-0.385568	0.0824125	3	-0.0105406	39	6.8688	-3.17756e-05
2	1	0	1	1	62.2553	-0.374563	-0.374572	0.0834458	3	-0.0105312	39	6.9788	-3.12565e-05
2	1	0	1	1	62.3653	-0.363564	-0.363522	0.0818298	3	-0.0105219	39	7.0888	-2.97469e-05
2	1	0	1	1	62.4753	-0.352566	-0.352561	0.0806976	3	-0.0105127	39	7.1988	-2.84508e-05
2	1	0	1	1	62.5853	-0.341568	-0.341541	0.0807214	3	-0.0105035	39	7.3088	-2.75697e-05
2	1	0	1	1	62.6953	-0.33057	-0.330577	0.0784964	3	-0.0104945	39	7.4188	-2.59491e-05
2	1	0	1	1	62.8053	-0.319572	-0.319585	0.0799287	3	-0.0104854	39	7.5288	-2.5544e-05
2	1	0	1	1	62.9153	-0.308574	-0.308588	0.0781331	3	-0.0104764	39	7.6388	-2.41109e-05
2	1	0	1	1	63.0251	-0.297576	-0.297588	0.0773698	3	-0.0104676	39	7.7486	-2.30243e-05
2	1	0	1	1	63.1351	-0.286577	-0.286578	0.0793331	3	-0.0104587	39	7.8586	-2.27351e-05
2	1	0	1	1	63.2451	-0.275579	-0.275573	0.0768394	3	-0.0104499	39	7.9686	-2.11749e-05
2	1	0	1	1	63.3551	-0.264581	-0.264566	0.0780761	3	-0.010441	39	8.0786	-2.06562e-05
2	1	0	1	1	63.4651	-0.253583	-0.253578	0.0758821	3	-0.0104323	39	8.1886	-1.9242e-05
2	1	0	1	1	63.5751	-0.242585	-0.242579	0.0757343	3	-0.0104236	39	8.2986	-1.83715e-05
2	1	0	1	1	63.6851	-0.231587	-0.231554	0.077519	3	-0.0104149	39	8.4086	-1.79498e-05
2	1	0	0	1	63.7156	-0.228537	-0.228577	0.0763987	3	-0.0104125	39	8.4391	-1.7463e-05