File: Fig 3/Fig 3_RRDE-np-Fe2O3_500mvs_ring.mpt
mode	ox/red	error	control changes	counter inc.	time/s	control/V	Ewe/V	<I>/mA	cycle number	(Q-Qo)/C	I Range	step time/s	P/W
2	0	1	1	0	0.000000000000000E+000	-0.300026	-0.30098	-1.81993	1	0.0000000E+000	39	0.000000000000000E+000	0.000547763
2	0	0	1	0	0.0193	-0.309675	-0.309997	-0.0655249	1	-3.72233e-06	39	0.0191	2.03125e-05
2	0	0	1	0	0.0413	-0.320673	-0.321012	-0.0497967	1	-4.92876e-06	39	0.0411	1.59854e-05
2	0	0	1	0	0.0633	-0.331671	-0.332009	-0.0446803	1	-5.95233e-06	39	0.0631	1.48343e-05
2	0	0	1	0	0.0853	-0.342669	-0.342986	-0.0432424	1	-6.92917e-06	39	0.0851	1.48315e-05
2	0	0	1	0	0.1073	-0.353667	-0.353996	-0.0458895	1	-7.90782e-06	39	0.1071	1.62447e-05
2	0	0	1	0	0.1293	-0.364666	-0.364976	-0.0451843	1	-8.89481e-06	39	0.1291	1.64912e-05
2	0	0	1	0	0.1513	-0.375664	-0.375996	-0.0446581	1	-9.89343e-06	39	0.1511	1.67913e-05
2	0	0	1	0	0.1733	-0.386662	-0.386987	-0.0492957	1	-1.0926e-05	39	0.1731	1.90768e-05
2	0	0	1	0	0.1953	-0.39766	-0.397987	-0.0490619	1	-1.19862e-05	39	0.1951	1.9526e-05
2	0	0	1	0	0.2173	-0.408658	-0.408996	-0.0481613	1	-1.30574e-05	39	0.2171	1.96977e-05
2	0	0	1	0	0.2393	-0.419656	-0.419994	-0.0509501	1	-1.41537e-05	39	0.2391	2.13987e-05
2	0	0	1	0	0.2613	-0.430654	-0.43099	-0.0118706	1	-1.33474e-05	39	0.002	5.11609e-06
2	0	0	1	0	0.2833	-0.441652	-0.441987	-0.0293713	1	-1.3861e-05	39	0.024	1.29818e-05
2	0	0	1	0	0.3053	-0.452651	-0.453008	-0.0370332	1	-1.45986e-05	39	0.046	1.67764e-05
2	0	0	1	0	0.3273	-0.463649	-0.463995	-0.0409002	1	-1.54449e-05	39	0.068	1.89775e-05
2	0	0	1	0	0.3493	-0.474647	-0.474992	-0.0415872	1	-1.63528e-05	39	0.09	1.97536e-05
2	0	0	1	0	0.3713	-0.485645	-0.485979	-0.0422173	1	-1.73084e-05	39	0.112	2.05167e-05
2	0	0	1	0	0.3933	-0.496643	-0.496974	-0.0484056	1	-1.83272e-05	39	0.134	2.40564e-05
2	0	0	1	0	0.4153	-0.507641	-0.507957	-0.0479514	1	-1.9388e-05	39	0.156	2.43573e-05
2	0	0	1	0	0.4373	-0.518639	-0.518968	-0.0509033	1	-2.04851e-05	39	0.178	2.64172e-05
2	0	0	1	0	0.4593	-0.529638	-0.52998	-0.0551446	1	-2.16411e-05	39	0.2	2.92255e-05
2	0	0	1	0	0.4813	-0.540636	-0.540979	-0.0538255	1	-2.28312e-05	39	0.222	2.91185e-05
2	0	0	1	0	0.5033	-0.551634	-0.551972	-0.055623	1	-2.40494e-05	39	0.244	3.07024e-05
2	0	0	1	0	0.5253	-0.562632	-0.562972	-0.059685	1	-2.53155e-05	39	0.266	3.3601e-05
2	0	0	1	0	0.5473	-0.57363	-0.573979	-0.0591801	1	-2.66155e-05	39	0.288	3.39682e-05
2	0	0	1	0	0.5693	-0.584628	-0.584984	-0.0602949	1	-2.79406e-05	39	0.31	3.52716e-05
2	0	0	1	0	0.5913	-0.595726	-0.596059	-0.0658183	1	-2.93246e-05	39	0.332	3.92316e-05
2	0	0	1	0	0.6133	-0.606724	-0.607058	-0.0648342	1	-3.07467e-05	39	0.354	3.93581e-05
2	0	0	1	0	0.6353	-0.617723	-0.61805	-0.0645517	1	-3.2185e-05	39	0.376	3.98962e-05
2	0	0	1	0	0.6573	-0.628721	-0.629075	-0.0704089	1	-3.36671e-05	39	0.398	4.42924e-05
2	0	0	1	0	0.6793	-0.639719	-0.640052	-0.0701334	1	-3.51946e-05	39	0.42	4.4889e-05
2	0	0	1	0	0.7013	-0.650717	-0.651037	-0.0694623	1	-3.67426e-05	39	0.442	4.52225e-05
2	0	0	1	0	0.7233	-0.661715	-0.662051	-0.0745175	1	-3.8335e-05	39	0.464	4.93343e-05
2	0	0	1	0	0.7453	-0.672713	-0.673041	-0.0751826	1	-3.99711e-05	39	0.486	5.0601e-05
2	0	0	1	0	0.7673	-0.683711	-0.68406	-0.0750719	1	-4.1635e-05	39	0.508	5.13537e-05
2	0	0	1	0	0.7893	-0.694709	-0.695047	-0.0794229	1	-4.33321e-05	39	0.53	5.52027e-05
2	0	0	1	0	0.8113	-0.705708	-0.706058	-0.0810392	1	-4.50854e-05	39	0.552	5.72184e-05
2	0	0	1	0	0.8333	-0.716706	-0.717031	-0.0804233	1	-4.68723e-05	39	0.574	5.7666e-05
2	0	0	1	0	0.8553	-0.727704	-0.728038	-0.0845986	1	-4.86916e-05	39	0.596	6.1591e-05
2	0	0	1	0	0.8773	-0.738702	-0.739044	-0.0873601	1	-5.05723e-05	39	0.618	6.45629e-05
2	0	0	1	0	0.8993	-0.7497	-0.750017	-0.0862957	1	-5.24857e-05	39	0.64	6.47233e-05
2	0	0	1	0	0.9213	-0.760698	-0.761036	-0.090514	1	-5.44415e-05	39	0.662	6.88844e-05
2	0	0	1	0	0.9433	-0.771696	-0.772049	-0.0947647	1	-5.64638e-05	39	0.684	7.3163e-05
2	0	0	1	0	0.9653	-0.782695	-0.783022	-0.093058	1	-5.85239e-05	39	0.706	7.28664e-05
2	0	0	1	0	0.9873	-0.793693	-0.794027	-0.0963894	1	-6.06296e-05	39	0.728	7.65358e-05
2	0	0	1	0	1.0093	-0.804691	-0.80502	-0.101993	1	-6.28052e-05	39	0.75	8.21068e-05
2	0	0	1	0	1.0313	-0.815689	-0.816017	-0.101194	1	-6.5031e-05	39	0.772	8.25759e-05
2	0	0	1	0	1.0533	-0.826687	-0.827028	-0.102985	1	-6.72918e-05	39	0.794	8.51719e-05
2	0	0	1	0	1.0753	-0.837685	-0.83803	-0.110124	1	-6.96292e-05	39	0.816	9.22873e-05
2	0	0	1	0	1.0973	-0.848683	-0.849031	-0.109134	1	-7.20283e-05	39	0.838	9.26585e-05
2	0	0	1	0	1.1193	-0.859681	-0.860026	-0.110527	1	-7.44715e-05	39	0.86	9.50563e-05
2	0	0	1	0	1.1413	-0.87068	-0.871032	-0.118598	1	-7.69975e-05	39	0.882	0.000103302
2	0	0	1	0	1.1633	-0.881678	-0.88203	-0.118773	1	-7.95914e-05	39	0.904	0.000104761
2	0	0	1	0	1.1853	-0.892676	-0.893024	-0.11929	1	-8.2229e-05	39	0.926	0.000106529
2	0	0	1	0	1.2073	-0.903674	-0.904004	-0.127539	1	-8.49443e-05	39	0.948	0.000115296
2	0	0	1	0	1.2293	-0.914672	-0.915006	-0.129464	1	-8.77474e-05	39	0.97	0.00011846
2	0	0	1	0	1.2513	-0.92567	-0.926008	-0.129457	1	-9.06052e-05	39	0.992	0.000119878
2	0	0	1	0	1.2733	-0.936668	-0.936995	-0.136437	1	-9.35366e-05	39	1.014	0.000127841
2	0	0	1	0	1.2953	-0.947666	-0.947993	-0.139473	1	-9.65589e-05	39	1.036	0.00013222
2	0	0	1	0	1.3173	-0.958665	-0.958987	-0.14037	1	-9.96393e-05	39	1.058	0.000134613
2	0	0	1	0	1.3393	-0.969663	-0.969979	-0.147679	1	-0.000102814	39	1.08	0.000143246
2	0	0	1	0	1.3613	-0.980661	-0.980978	-0.152603	1	-0.000106099	39	1.102	0.0001497
2	0	0	1	0	1.3833	-0.991659	-0.99197	-0.153302	1	-0.000109472	39	1.124	0.000152071
2	0	0	1	0	1.4053	-1.00266	-1.00296	-0.161595	1	-0.000112947	39	1.146	0.000162073
2	0	0	1	0	1.4273	-1.01366	-1.01398	-0.171171	1	-0.000116587	39	1.168	0.000173565
2	0	0	1	0	1.4493	-1.02465	-1.02496	-0.176086	1	-0.000120399	39	1.19	0.000180481
2	0	0	1	0	1.4713	-1.03565	-1.03599	-0.191379	1	-0.000124447	39	1.212	0.000198266
2	0	0	1	0	1.4933	-1.04665	-1.04697	-0.210593	1	-0.000128834	39	1.234	0.000220483
2	0	0	1	0	1.5153	-1.05765	-1.05794	-0.224037	1	-0.00013359	39	1.256	0.000237018
2	0	0	1	0	1.5373	-1.06865	-1.06895	-0.243878	1	-0.000138759	39	1.278	0.000260693
2	0	0	1	0	1.5593	-1.07964	-1.07996	-0.268662	1	-0.000144386	39	1.3	0.000290145
2	0	0	1	0	1.5813	-1.09064	-1.09096	-0.286444	1	-0.000150478	39	1.322	0.0003125
2	0	0	1	0	1.6033	-1.10164	-1.10194	-0.30774	1	-0.000157038	39	1.344	0.000339111
2	0	0	1	0	1.6253	-1.11264	-1.11296	-0.335587	1	-0.000164107	39	1.366	0.000373495
2	0	0	1	0	1.6473	-1.12364	-1.12396	-0.353779	1	-0.000171667	39	1.388	0.000397633
2	0	0	1	0	1.6693	-1.13463	-1.13494	-0.376051	1	-0.000179709	39	1.41	0.000426795
2	0	0	1	0	1.6913	-1.14563	-1.14594	-0.422938	1	-0.000188461	39	1.432	0.000484663
2	0	0	1	0	1.7133	-1.15663	-1.15694	-0.504894	1	-0.000198539	39	1.454	0.000584132
2	0	0	1	0	1.7353	-1.16763	-1.16795	-0.689876	1	-0.000211437	39	1.476	0.000805741
2	0	0	1	0	1.7573	-1.17863	-1.17894	-1.06053	1	-0.000230374	39	1.498	0.00125031
2	0	0	1	0	1.7793	-1.18973	-1.19003	-1.6032	1	-0.000259443	39	1.52	0.00190786
2	0	0	1	0	1.8013	-1.20072	-1.20104	-2.20819	1	-0.000301363	39	1.542	0.00265212
2	0	0	1	0	1.8233	-1.21172	-1.21202	-2.79469	1	-0.000356566	39	1.564	0.00338724
2	0	0	1	0	1.8453	-1.22272	-1.22302	-3.31844	1	-0.000423988	39	1.586	0.00405852
2	0	0	1	0	1.8673	-1.23372	-1.23402	-3.74843	1	-0.000502041	39	1.608	0.00462565
2	0	0	1	0	1.8893	-1.24472	-1.24506	-4.07936	1	-0.000588374	39	1.63	0.00507904
2	0	0	1	0	1.9113	-1.25571	-1.25605	-4.36965	1	-0.000681485	39	1.652	0.00548851
2	0	0	1	0	1.9333	-1.26671	-1.26706	-4.67269	1	-0.000780851	39	1.674	0.00592058
2	0	0	1	0	1.9553	-1.27771	-1.27803	-5.08519	1	-0.000888006	39	1.696	0.00649903
2	0	0	1	0	1.9773	-1.28871	-1.28903	-5.55706	1	-0.00100493	39	1.718	0.00716321
2	0	0	1	0	1.9993	-1.29971	-1.30004	-6.0835	1	-0.00113296	39	1.74	0.00790882
2	0	0	1	0	2.0213	-1.3107	-1.31103	-6.67107	1	-0.00127297	39	1.762	0.00874599
2	0	0	1	0	2.0433	-1.3217	-1.32203	-7.45701	1	-0.00142809	39	1.784	0.00985836
2	0	0	1	0	2.0653	-1.3327	-1.33307	-8.52084	1	-0.00160336	39	1.806	0.0113589
2	0	0	1	0	2.0873	-1.3437	-1.34405	-9.78256	1	-0.00180447	39	1.828	0.0131482
2	0	0	1	1	2.1035	-1.3483	-1.34868	-10.5239	2	-0.00197095	39	1.8442	0.0141934
2	0	0	1	1	2.1255	-1.3373	-1.33765	-9.38879	2	-0.0021908	39	1.8662	0.0125589
2	0	0	1	1	2.1475	-1.3263	-1.32664	-8.16788	2	-0.00238368	39	1.8882	0.0108358
2	0	0	1	1	2.1695	-1.3153	-1.31566	-6.93988	2	-0.00254967	39	1.9102	0.00913049
2	0	0	1	1	2.1915	-1.30431	-1.30463	-5.7403	2	-0.00268884	39	1.9322	0.00748895
2	0	0	1	1	2.2135	-1.29331	-1.29366	-4.69341	2	-0.00280303	39	1.9542	0.00607168
2	0	0	1	1	2.2355	-1.28231	-1.28263	-3.74283	2	-0.00289572	39	1.9762	0.00480066
2	0	0	1	1	2.2575	-1.27131	-1.27165	-2.97988	2	-0.00296922	39	1.9982	0.00378935
2	0	0	1	1	2.2795	-1.26031	-1.26065	-2.38424	2	-0.00302795	39	2.0202	0.0030057
2	0	0	1	1	2.3015	-1.24932	-1.24966	-1.90992	2	-0.00307485	39	2.0422	0.00238676
2	0	0	1	1	2.3235	-1.23832	-1.23864	-1.56935	2	-0.00311294	39	2.0642	0.00194386
2	0	0	1	1	2.3455	-1.22732	-1.22766	-1.30431	2	-0.00314446	39	2.0862	0.00160125
2	0	0	1	1	2.3675	-1.21632	-1.21664	-1.10014	2	-0.00317082	39	2.1082	0.00133848
2	0	0	1	1	2.3895	-1.20532	-1.20565	-0.939225	2	-0.00319314	39	2.1302	0.00113237
2	0	0	1	1	2.4115	-1.19432	-1.19464	-0.801464	2	-0.00321224	39	2.1522	0.000957463
2	0	0	1	1	2.4335	-1.18333	-1.18364	-0.67366	2	-0.00322841	39	2.1742	0.000797369
2	0	0	1	1	2.4555	-1.17223	-1.17256	-0.571523	2	-0.00324208	39	2.1962	0.000670146
2	0	0	1	1	2.4775	-1.16123	-1.16155	-0.485889	2	-0.00325363	39	2.2182	0.000564385
2	0	0	1	1	2.4995	-1.15023	-1.15059	-0.398042	2	-0.0032633	39	2.2402	0.000457982
2	0	0	1	1	2.5215	-1.13923	-1.13955	-0.327389	2	-0.00327129	39	2.2622	0.000373075
2	0	0	1	1	2.5435	-1.12824	-1.12856	-0.270352	2	-0.00327785	39	2.2842	0.000305109
2	0	0	1	1	2.5655	-1.11724	-1.11756	-0.206589	2	-0.00328307	39	2.3062	0.000230875
2	0	0	1	1	2.5875	-1.10624	-1.10656	-0.151797	2	-0.00328703	39	2.3282	0.000167973
2	0	0	1	1	2.6095	-1.09524	-1.09557	-0.112246	2	-0.0032899	39	2.3502	0.000122974
2	0	0	1	1	2.6315	-1.08424	-1.08458	-0.061333	2	-0.00329178	39	2.3722	6.65203e-05
2	0	0	1	1	2.6535	-1.07325	-1.07359	-0.0160493	2	-0.00329267	39	2.3942	1.72304e-05
2	1	0	1	1	2.6755	-1.06225	-1.06259	0.0159654	2	-0.00329267	39	0.01	-1.69647e-05
2	1	0	1	1	2.6975	-1.05125	-1.05159	0.0677616	2	-0.00329171	39	0.032	-7.12577e-05
2	1	0	1	1	2.7195	-1.04025	-1.0406	0.133675	2	-0.00328955	39	0.054	-0.000139102
2	1	0	1	1	2.7415	-1.02925	-1.02959	0.201011	2	-0.00328589	39	0.076	-0.000206958
2	1	0	1	1	2.7635	-1.01825	-1.01858	0.29975	2	-0.00328034	39	0.098	-0.000305318
2	1	0	1	1	2.7855	-1.00726	-1.00757	0.420715	2	-0.00327244	39	0.12	-0.000423898
2	1	0	1	1	2.8075	-0.996258	-0.996587	0.520859	2	-0.00326209	39	0.142	-0.000519082
2	1	0	1	1	2.8295	-0.98526	-0.985584	0.601434	2	-0.00324965	39	0.164	-0.000592763
2	1	0	1	1	2.8515	-0.974262	-0.974593	0.651359	2	-0.00323577	39	0.186	-0.00063481
2	1	0	1	1	2.8735	-0.963264	-0.963569	0.62044	2	-0.00322171	39	0.208	-0.000597837
2	1	0	1	1	2.8955	-0.952266	-0.95259	0.56672	2	-0.00320867	39	0.23	-0.000539851
2	1	0	1	1	2.9175	-0.941267	-0.941597	0.546293	2	-0.00319644	39	0.252	-0.000514388
2	1	0	1	1	2.9395	-0.930269	-0.930591	0.526957	2	-0.0031847	39	0.274	-0.000490382
2	1	0	1	1	2.9615	-0.919271	-0.919599	0.525293	2	-0.00317314	39	0.296	-0.000483059
2	1	0	1	1	2.9835	-0.908273	-0.908608	0.549771	2	-0.00316131	39	0.318	-0.000499526
2	1	0	1	1	3.0055	-0.897275	-0.897605	0.572586	2	-0.003149	39	0.34	-0.000513956
2	1	0	1	1	3.0275	-0.886277	-0.886584	0.592642	2	-0.00313616	39	0.362	-0.000525427
2	1	0	1	1	3.0495	-0.875279	-0.875582	0.622181	2	-0.00312275	39	0.384	-0.000544771
2	1	0	1	1	3.0715	-0.864281	-0.864634	0.637014	2	-0.00310891	39	0.406	-0.000550784
2	1	0	1	1	3.0935	-0.853283	-0.853606	0.630244	2	-0.00309493	39	0.428	-0.00053798
2	1	0	1	1	3.1155	-0.842284	-0.842623	0.62355	2	-0.00308111	39	0.45	-0.000525418
2	1	0	1	1	3.1375	-0.831286	-0.831615	0.608793	2	-0.00306758	39	0.472	-0.000506282
2	1	0	1	1	3.1595	-0.820288	-0.820618	0.583197	2	-0.00305448	39	0.494	-0.000478582
2	1	0	1	1	3.1815	-0.80929	-0.809607	0.569608	2	-0.00304178	39	0.516	-0.000461159
2	1	0	1	1	3.2035	-0.798292	-0.798619	0.559116	2	-0.0030294	39	0.538	-0.000446521
2	1	0	1	1	3.2255	-0.787294	-0.787609	0.539632	2	-0.00301733	39	0.56	-0.000425019
2	1	0	1	1	3.2475	-0.776296	-0.776582	0.53185	2	-0.00300552	39	0.582	-0.000413025
2	1	0	1	1	3.2695	-0.765297	-0.765643	0.52862	2	-0.00299388	39	0.604	-0.000404735
2	1	0	1	1	3.2915	-0.754299	-0.754643	0.517152	2	-0.00298238	39	0.626	-0.000390265
2	1	0	1	1	3.3135	-0.743301	-0.743605	0.512613	2	-0.00297104	39	0.648	-0.000381181
2	1	0	1	1	3.3355	-0.732303	-0.732629	0.512093	2	-0.00295977	39	0.67	-0.000375174
2	1	0	1	1	3.3575	-0.721305	-0.72162	0.504521	2	-0.0029486	39	0.692	-0.000364073
2	1	0	1	1	3.3795	-0.710307	-0.710638	0.501379	2	-0.00293752	39	0.714	-0.000356299
2	1	0	1	1	3.4015	-0.699309	-0.699635	0.503517	2	-0.00292647	39	0.736	-0.000352278
2	1	0	1	1	3.4235	-0.688311	-0.688628	0.498839	2	-0.00291547	39	0.758	-0.000343514
2	1	0	1	1	3.4455	-0.677312	-0.677619	0.49648	2	-0.00290452	39	0.78	-0.000336425
2	1	0	1	1	3.4675	-0.666314	-0.666651	0.500038	2	-0.00289355	39	0.802	-0.000333351
2	1	0	1	1	3.4895	-0.655316	-0.655642	0.499022	2	-0.00288257	39	0.824	-0.00032718
2	1	0	1	1	3.5115	-0.644318	-0.644656	0.498452	2	-0.00287159	39	0.846	-0.00032133
2	1	0	1	1	3.5335	-0.63332	-0.633653	0.505132	2	-0.00286055	39	0.868	-0.000320078
2	1	0	1	1	3.5555	-0.622322	-0.622665	0.507095	2	-0.00284944	39	0.89	-0.000315751
2	1	0	1	1	3.5775	-0.611324	-0.611639	0.508352	2	-0.00283826	39	0.912	-0.000310928
2	1	0	1	1	3.5995	-0.600325	-0.600632	0.516579	2	-0.00282698	39	0.934	-0.000310274
2	1	0	1	1	3.6215	-0.589227	-0.589568	0.523185	2	-0.00281557	39	0.956	-0.000308453
2	1	0	1	1	3.6435	-0.578229	-0.578576	0.525321	2	-0.00280403	39	0.978	-0.000303938
2	1	0	1	1	3.6655	-0.567231	-0.567582	0.534112	2	-0.00279237	39	1	-0.000303152
2	1	0	1	1	3.6875	-0.556233	-0.556546	0.541596	2	-0.00278056	39	1.022	-0.000301423
2	1	0	1	1	3.7095	-0.545235	-0.545567	0.543082	2	-0.00276862	39	1.044	-0.000296287
2	1	0	1	1	3.7315	-0.534237	-0.534568	0.549752	2	-0.00275658	39	1.066	-0.000293879
2	1	0	1	1	3.7535	-0.523239	-0.523565	0.555797	2	-0.00274444	39	1.088	-0.000290996
2	1	0	1	1	3.7755	-0.51224	-0.512569	0.553322	2	-0.00273223	39	1.11	-0.000283616
2	1	0	1	1	3.7975	-0.501242	-0.501551	0.555203	2	-0.00272002	39	1.132	-0.000278463
2	1	0	1	1	3.8195	-0.490244	-0.490559	0.556368	2	-0.0027078	39	1.154	-0.000272931
2	1	0	1	1	3.8415	-0.479246	-0.479574	0.548819	2	-0.00269565	39	1.176	-0.000263199
2	1	0	1	1	3.8635	-0.468248	-0.46857	0.54337	2	-0.00268363	39	1.198	-0.000254607
2	1	0	1	1	3.8855	-0.45725	-0.457596	0.537219	2	-0.00267175	39	1.22	-0.000245829
2	1	0	1	1	3.9075	-0.446252	-0.446553	0.525427	2	-0.00266007	39	1.242	-0.000234631
2	1	0	1	1	3.9295	-0.435254	-0.435579	0.512742	2	-0.00264864	39	1.264	-0.00022334
2	1	0	1	1	3.9515	-0.424255	-0.424612	0.504206	2	-0.00263744	39	1.286	-0.000214092
2	1	0	1	1	3.9735	-0.413257	-0.41361	0.490841	2	-0.0026265	39	1.308	-0.000203017
2	1	0	1	1	3.9955	-0.402259	-0.402575	0.477048	2	-0.00261583	39	1.33	-0.000192048
2	1	0	1	1	4.0175	-0.391261	-0.391597	0.46877	2	-0.00260542	39	1.352	-0.000183569
2	1	0	1	1	4.0395	-0.380263	-0.380595	0.456447	2	-0.00259526	39	1.374	-0.000173721
2	1	0	1	1	4.0615	-0.369265	-0.369585	0.44314	2	-0.00258534	39	1.396	-0.000163778
2	1	0	1	1	4.0835	-0.358267	-0.358605	0.43674	2	-0.00257566	39	1.418	-0.000156617
2	1	0	1	1	4.1055	-0.347268	-0.347603	0.427097	2	-0.00256617	39	1.44	-0.00014846
2	1	0	1	1	4.1275	-0.33627	-0.33658	0.415872	2	-0.00255689	39	1.462	-0.000139974
2	1	0	1	1	4.1495	-0.325272	-0.325583	0.410191	2	-0.0025478	39	1.484	-0.000133551
2	1	0	1	1	4.1715	-0.314274	-0.314597	0.403934	2	-0.00253886	39	1.506	-0.000127077
2	1	0	1	1	4.1935	-0.303276	-0.303583	0.39394	2	-0.00253009	39	1.528	-0.000119594
2	1	0	1	1	4.2095	-0.304576	-0.304868	0.308356	2	-0.00252436	39	1.544	-9.40079e-05
2	1	0	1	1	4.2315	-0.315574	-0.315864	0.247452	2	-0.0025183	39	1.566	-7.81611e-05
2	1	0	1	1	4.2535	-0.326572	-0.326912	0.203835	2	-0.00251338	39	1.588	-6.66361e-05
2	1	0	1	1	4.2755	-0.33757	-0.337907	0.166465	2	-0.00250932	39	1.61	-5.62498e-05
2	1	0	1	1	4.2975	-0.348568	-0.348884	0.14067	2	-0.00250593	39	1.632	-4.90774e-05
2	1	0	1	1	4.3195	-0.359566	-0.359876	0.120084	2	-0.00250308	39	1.654	-4.32154e-05
2	1	0	1	1	4.3415	-0.370565	-0.370901	0.0998638	2	-0.00250067	39	1.676	-3.70396e-05
2	1	0	1	1	4.3635	-0.381563	-0.38187	0.0845426	2	-0.00249863	39	1.698	-3.22843e-05
2	1	0	1	1	4.3855	-0.392561	-0.392885	0.0742717	2	-0.0024969	39	1.72	-2.91802e-05
2	1	0	1	1	4.4075	-0.403559	-0.403858	0.0599263	2	-0.00249544	39	1.742	-2.42017e-05
2	1	0	1	1	4.4295	-0.414557	-0.414885	0.0495701	2	-0.00249422	39	1.764	-2.05659e-05
2	1	0	1	1	4.4515	-0.425555	-0.425862	0.0436403	2	-0.0024932	39	1.786	-1.85847e-05
2	1	0	1	1	4.4735	-0.436553	-0.436878	0.0342256	2	-0.00249235	39	1.808	-1.49524e-05
2	1	0	1	1	4.4955	-0.447551	-0.447852	0.0254616	2	-0.00249168	39	1.83	-1.14031e-05
2	1	0	1	1	4.5175	-0.45855	-0.458855	0.0231239	2	-0.00249113	39	1.852	-1.06105e-05
2	1	0	1	1	4.5395	-0.469548	-0.469849	0.016563	2	-0.00249072	39	1.874	-7.7821e-06
2	1	0	1	1	4.5615	-0.480546	-0.480848	0.00900372	2	-0.00249043	39	1.896	-4.32942e-06
2	1	0	1	1	4.5835	-0.491544	-0.491866	0.00813133	2	-0.00249024	39	1.918	-3.99953e-06
2	1	0	1	1	4.6055	-0.502542	-0.502857	0.0033115	2	-0.00249013	39	1.94	-1.66521e-06
2	0	0	1	1	4.6275	-0.51354	-0.513862	-0.00346473	2	-0.00249013	39	0.004	1.78039e-06
2	0	0	1	1	4.6495	-0.524538	-0.52488	-0.00369048	2	-0.00249021	39	0.026	1.93706e-06
2	0	0	1	1	4.6715	-0.535536	-0.535859	-0.00661345	2	-0.00249034	39	0.048	3.54388e-06
2	0	0	1	1	4.6935	-0.546535	-0.546851	-0.0137685	2	-0.00249056	39	0.07	7.52933e-06
2	0	0	1	1	4.7155	-0.557533	-0.55784	-0.0132795	2	-0.00249084	39	0.092	7.40781e-06
2	0	0	1	1	4.7375	-0.568531	-0.568833	-0.0148664	2	-0.00249117	39	0.114	8.45652e-06
2	0	0	1	1	4.7595	-0.579529	-0.579838	-0.0214545	2	-0.00249156	39	0.136	1.24401e-05
2	0	0	1	1	4.7815	-0.590527	-0.590857	-0.0214454	2	-0.00249202	39	0.158	1.26712e-05
2	0	0	1	1	4.8035	-0.601625	-0.601933	-0.0217979	2	-0.00249252	39	0.18	1.31209e-05
2	0	0	1	1	4.8255	-0.612623	-0.612942	-0.0274572	2	-0.00249307	39	0.202	1.68297e-05
2	0	0	1	1	4.8475	-0.623622	-0.623954	-0.0282901	2	-0.00249367	39	0.224	1.76517e-05
2	0	0	1	1	4.8695	-0.63462	-0.634934	-0.0281141	2	-0.0024943	39	0.246	1.78506e-05
2	0	0	1	1	4.8915	-0.645618	-0.645934	-0.0333782	2	-0.00249497	39	0.268	2.15601e-05
2	0	0	1	1	4.9135	-0.656616	-0.656941	-0.0353133	2	-0.00249571	39	0.29	2.31987e-05
2	0	0	1	1	4.9355	-0.667614	-0.66795	-0.0340048	2	-0.00249648	39	0.312	2.27135e-05
2	0	0	1	1	4.9575	-0.678612	-0.678922	-0.0388849	2	-0.00249729	39	0.334	2.63998e-05
2	0	0	1	1	4.9795	-0.68961	-0.689933	-0.0425507	2	-0.00249817	39	0.356	2.93571e-05
2	0	0	1	1	5.0015	-0.700608	-0.700909	-0.0404716	2	-0.00249908	39	0.378	2.83669e-05
2	0	0	1	1	5.0235	-0.711607	-0.711919	-0.0442281	2	-0.00250003	39	0.4	3.14868e-05
2	0	0	1	1	5.0455	-0.722605	-0.722937	-0.0502178	2	-0.00250105	39	0.422	3.63043e-05
2	0	0	1	1	5.0675	-0.733603	-0.733943	-0.0480689	2	-0.00250212	39	0.444	3.52799e-05
2	0	0	1	1	5.0895	-0.744601	-0.744913	-0.0521142	2	-0.00250324	39	0.466	3.88206e-05
2	0	0	1	1	5.1115	-0.755599	-0.755935	-0.05911	2	-0.00250445	39	0.488	4.46833e-05
2	0	0	1	1	5.1335	-0.766597	-0.766901	-0.0584607	2	-0.00250573	39	0.51	4.48336e-05
2	0	0	1	1	5.1555	-0.777595	-0.777908	-0.0626898	2	-0.00250708	39	0.532	4.87669e-05
2	0	0	1	1	5.1775	-0.788594	-0.788908	-0.0720037	2	-0.00250855	39	0.554	5.68043e-05
2	0	0	1	1	5.1995	-0.799592	-0.799898	-0.0729888	2	-0.00251013	39	0.576	5.83836e-05
2	0	0	1	1	5.2215	-0.81059	-0.810909	-0.0776037	2	-0.00251182	39	0.598	6.29295e-05
2	0	0	1	1	5.2435	-0.821588	-0.821911	-0.0894033	2	-0.00251366	39	0.62	7.34816e-05
2	0	0	1	1	5.2655	-0.832586	-0.832895	-0.0933548	2	-0.00251564	39	0.642	7.77548e-05
2	0	0	1	1	5.2875	-0.843584	-0.843899	-0.0971925	2	-0.00251776	39	0.664	8.20207e-05
2	0	0	1	1	5.3095	-0.854582	-0.854911	-0.10983	2	-0.00252005	39	0.686	9.38952e-05
2	0	0	1	1	5.3315	-0.86558	-0.865887	-0.11587	2	-0.00252252	39	0.708	0.00010033
2	0	0	1	1	5.3535	-0.876579	-0.876871	-0.119783	2	-0.00252512	39	0.73	0.000105035
2	0	0	1	1	5.3755	-0.887577	-0.887876	-0.131672	2	-0.00252789	39	0.752	0.000116908
2	0	0	1	1	5.3975	-0.898575	-0.898886	-0.139045	2	-0.00253084	39	0.774	0.000124985
2	0	0	1	1	5.4195	-0.909573	-0.909888	-0.14293	2	-0.00253396	39	0.796	0.00013005
2	0	0	1	1	5.4415	-0.920571	-0.92088	-0.155194	2	-0.00253724	39	0.818	0.000142915
2	0	0	1	1	5.4635	-0.931569	-0.931879	-0.166473	2	-0.00254075	39	0.84	0.000155133
2	0	0	1	1	5.4855	-0.942567	-0.9429	-0.171273	2	-0.00254447	39	0.862	0.000161493
2	0	0	1	1	5.5075	-0.953565	-0.953867	-0.186106	2	-0.00254842	39	0.884	0.00017752
2	0	0	1	1	5.5295	-0.964564	-0.964871	-0.2057	2	-0.00255271	39	0.906	0.000198474
2	0	0	1	1	5.5515	-0.975562	-0.975873	-0.219412	2	-0.00255736	39	0.928	0.000214118
2	0	0	1	1	5.5735	-0.98656	-0.986864	-0.244224	2	-0.00256247	39	0.95	0.000241016
2	0	0	1	1	5.5955	-0.997558	-0.997878	-0.281922	2	-0.00256824	39	0.972	0.000281324
2	0	0	1	1	5.6175	-1.00856	-1.00888	-0.318445	2	-0.0025748	39	0.994	0.000321272
2	0	0	1	1	5.6395	-1.01955	-1.01988	-0.371047	2	-0.0025824	39	1.016	0.000378423
2	0	0	1	1	5.6615	-1.03055	-1.03087	-0.446961	2	-0.00259136	39	1.038	0.000460759
2	0	0	1	1	5.6835	-1.04155	-1.04189	-0.528088	2	-0.00260204	39	1.06	0.000550209
2	0	0	1	1	5.7055	-1.05255	-1.0529	-0.633954	2	-0.00261482	39	1.082	0.000667488
2	0	0	1	1	5.7275	-1.06355	-1.06389	-0.79415	2	-0.00263044	39	1.104	0.000844888
2	0	0	1	1	5.7495	-1.07454	-1.07484	-1.03614	2	-0.00265032	39	1.126	0.00111369
2	0	0	1	1	5.7715	-1.08554	-1.08584	-1.42997	2	-0.00267723	39	1.148	0.00155272
2	0	0	1	1	5.7935	-1.09654	-1.09685	-1.83178	2	-0.00271359	39	1.17	0.00200919
2	0	0	1	1	5.8155	-1.10754	-1.10784	-1.77489	2	-0.00275435	39	1.192	0.00196629
2	0	0	1	1	5.8375	-1.11854	-1.11886	-1.32375	2	-0.00278854	39	1.214	0.00148109
2	0	0	1	1	5.8595	-1.12954	-1.12983	-1.0281	2	-0.00281398	39	1.236	0.00116158
2	0	0	1	1	5.8815	-1.14053	-1.14087	-0.905901	2	-0.00283496	39	1.258	0.00103351
2	0	0	1	1	5.9035	-1.15153	-1.15187	-0.868034	2	-0.00285437	39	1.28	0.000999861
2	0	0	1	1	5.9255	-1.16253	-1.16282	-0.863691	2	-0.00287341	39	1.302	0.00100432
2	0	0	1	1	5.9475	-1.17353	-1.17384	-0.854176	2	-0.00289229	39	1.324	0.00100266
2	0	0	1	1	5.9695	-1.18463	-1.18495	-0.826355	2	-0.0029108	39	1.346	0.000979188
2	0	0	1	1	5.9915	-1.19562	-1.19594	-0.81331	2	-0.00292886	39	1.368	0.000972672
2	0	0	1	1	6.0135	-1.20662	-1.20693	-0.809448	2	-0.00294668	39	1.39	0.00097695
2	0	0	1	1	6.0355	-1.21762	-1.21795	-0.81741	2	-0.00296452	39	1.412	0.000995566
2	0	0	1	1	6.0575	-1.22862	-1.22894	-0.847998	2	-0.00298283	39	1.434	0.00104214
2	0	0	1	1	6.0795	-1.23962	-1.23994	-0.904514	2	-0.00300206	39	1.456	0.00112154
2	0	0	1	1	6.1015	-1.25062	-1.25093	-0.992865	2	-0.00302284	39	1.478	0.001242
2	0	0	1	1	6.1235	-1.26161	-1.26191	-1.14206	2	-0.00304626	39	1.5	0.00144119
2	0	0	1	1	6.1455	-1.27261	-1.27292	-1.38306	2	-0.00307384	39	1.522	0.00176053
2	0	0	1	1	6.1675	-1.28361	-1.28392	-1.78562	2	-0.00310824	39	1.544	0.0022926
2	0	0	1	1	6.1895	-1.29461	-1.29495	-2.36553	2	-0.00315367	39	1.566	0.00306323
2	0	0	1	1	6.2115	-1.30561	-1.30592	-3.07799	2	-0.0032134	39	1.588	0.0040196
2	0	0	1	1	6.2335	-1.3166	-1.31694	-4.03046	2	-0.00329122	39	1.61	0.00530786
2	0	0	1	1	6.2555	-1.3276	-1.32791	-5.15289	2	-0.00339226	39	1.632	0.00684258
2	0	0	1	1	6.2775	-1.3386	-1.33892	-6.46157	2	-0.00352029	39	1.654	0.0086515
2	0	0	1	1	6.2993	-1.3495	-1.34983	-7.83082	2	-0.00367594	39	1.6758	0.0105703
2	0	0	1	0	6.3159	-1.3423	-1.34264	-7.2502	3	-0.00380222	39	1.6924	0.00973439
2	0	0	1	0	6.3379	-1.3313	-1.33166	-6.12711	3	-0.003949	39	1.7144	0.00815922
2	0	0	1	0	6.3599	-1.3203	-1.32064	-5.05034	3	-0.004072	39	1.7364	0.0066697
2	0	0	1	0	6.3819	-1.30931	-1.30964	-4.04872	3	-0.00417175	39	1.7584	0.00530235
2	0	0	1	0	6.4039	-1.29831	-1.29865	-3.15356	3	-0.00425059	39	1.7804	0.00409537
2	0	0	1	0	6.4259	-1.28731	-1.28763	-2.43673	3	-0.0043118	39	1.8024	0.00313759
2	0	0	1	0	6.4479	-1.27631	-1.27665	-1.84201	3	-0.00435851	39	1.8244	0.0023516
2	0	0	1	0	6.4699	-1.26531	-1.26565	-1.39235	3	-0.00439381	39	1.8464	0.00176222
2	0	0	1	0	6.4919	-1.25431	-1.25465	-1.06581	3	-0.00442069	39	1.8684	0.00133722
2	0	0	1	0	6.5139	-1.24332	-1.24364	-0.830557	3	-0.00444133	39	1.8904	0.00103291
2	0	0	1	0	6.5359	-1.23232	-1.23266	-0.657781	3	-0.00445765	39	1.9124	0.00081082
2	0	0	1	0	6.5579	-1.22132	-1.22165	-0.528474	3	-0.00447064	39	1.9344	0.00064561
2	0	0	1	0	6.5799	-1.21032	-1.21062	-0.43151	3	-0.00448113	39	1.9564	0.000522395
2	0	0	1	0	6.6019	-1.19932	-1.19963	-0.350501	3	-0.00448969	39	1.9784	0.000420473
2	0	0	1	0	6.6239	-1.18833	-1.18864	-0.285883	3	-0.00449667	39	2.0004	0.000339813
2	0	0	1	0	6.6459	-1.17723	-1.17755	-0.232714	3	-0.00450237	39	2.0224	0.000274033
2	0	0	1	0	6.6679	-1.16623	-1.16655	-0.182082	3	-0.00450693	39	2.0444	0.000212407
2	0	0	1	0	6.6899	-1.15523	-1.15557	-0.137987	3	-0.00451046	39	2.0664	0.000159454
2	0	0	1	0	6.7119	-1.14423	-1.14456	-0.103522	3	-0.00451308	39	2.0884	0.000118488
2	0	0	1	0	6.7339	-1.13323	-1.13359	-0.0612254	3	-0.00451486	39	2.1104	6.94043e-05
2	0	0	1	0	6.7559	-1.12224	-1.12255	-0.0245477	3	-0.00451584	39	2.1324	2.75561e-05
2	1	0	1	0	6.7779	-1.11124	-1.11157	0.000759579	3	-0.00451608	39	0.004	-8.44324e-07
2	1	0	1	0	6.7999	-1.10024	-1.10057	0.0333878	3	-0.00451567	39	0.026	-3.67456e-05
2	1	0	1	0	6.8219	-1.08924	-1.08957	0.064267	3	-0.00451462	39	0.048	-7.00234e-05
2	1	0	1	0	6.8439	-1.07824	-1.0786	0.0816797	3	-0.00451302	39	0.07	-8.80994e-05
2	1	0	1	0	6.8659	-1.06725	-1.06757	0.109376	3	-0.00451088	39	0.092	-0.000116767
2	1	0	1	0	6.8879	-1.05625	-1.05657	0.145217	3	-0.00450811	39	0.114	-0.000153432
2	1	0	1	0	6.9099	-1.04525	-1.0456	0.177332	3	-0.0045046	39	0.136	-0.000185418
2	1	0	1	0	6.9319	-1.03425	-1.03457	0.232752	3	-0.00450009	39	0.158	-0.000240798
2	1	0	1	0	6.9539	-1.02325	-1.02358	0.318096	3	-0.00449408	39	0.18	-0.000325596
2	1	0	1	0	6.9759	-1.01226	-1.01259	0.41285	3	-0.0044861	39	0.202	-0.000418045
2	1	0	1	0	6.9979	-1.00126	-1.00158	0.516307	3	-0.00447581	39	0.224	-0.000517122
2	1	0	1	0	7.0199	-0.990259	-0.990564	0.626893	3	-0.00446317	39	0.246	-0.000620977
2	1	0	1	0	7.0419	-0.979261	-0.97957	0.68093	3	-0.00444872	39	0.268	-0.000667018
2	1	0	1	0	7.0639	-0.968263	-0.968572	0.660505	3	-0.00443381	39	0.29	-0.000639747
2	1	0	1	0	7.0859	-0.957265	-0.957584	0.611573	3	-0.00441978	39	0.312	-0.000585633
2	1	0	1	0	7.1079	-0.946267	-0.946606	0.561879	3	-0.00440696	39	0.334	-0.000531878
2	1	0	1	0	7.1299	-0.935269	-0.935598	0.529382	3	-0.00439497	39	0.356	-0.000495289
2	1	0	1	0	7.1519	-0.92427	-0.924593	0.535799	3	-0.00438326	39	0.378	-0.000495396
2	1	0	1	0	7.1739	-0.913272	-0.913596	0.552141	3	-0.00437136	39	0.4	-0.000504433
2	1	0	1	0	7.1959	-0.902274	-0.902599	0.567564	3	-0.00435906	39	0.422	-0.000512283
2	1	0	1	0	7.2179	-0.891276	-0.891616	0.601568	3	-0.00434619	39	0.444	-0.000536367
2	1	0	1	0	7.2399	-0.880278	-0.88059	0.632599	3	-0.00433265	39	0.466	-0.00055706
2	1	0	1	0	7.2619	-0.86928	-0.869617	0.645921	3	-0.00431856	39	0.488	-0.000561704
2	1	0	1	0	7.2839	-0.858282	-0.858612	0.658444	3	-0.00430416	39	0.51	-0.000565348
2	1	0	1	0	7.3059	-0.847284	-0.847616	0.655355	3	-0.00428971	39	0.532	-0.000555489
2	1	0	1	0	7.3279	-0.836285	-0.836628	0.633221	3	-0.00427551	39	0.554	-0.00052977
2	1	0	1	0	7.3499	-0.825287	-0.825625	0.616825	3	-0.00426173	39	0.576	-0.000509266
2	1	0	1	0	7.3719	-0.814289	-0.814641	0.604627	3	-0.00424832	39	0.598	-0.000492554
2	1	0	1	0	7.3939	-0.803291	-0.803619	0.582068	3	-0.00423529	39	0.62	-0.000467761
2	1	0	1	0	7.4159	-0.792293	-0.792618	0.569336	3	-0.00422262	39	0.642	-0.000451266
2	1	0	1	0	7.4379	-0.781295	-0.781619	0.560354	3	-0.0042102	39	0.664	-0.000437983
2	1	0	1	0	7.4599	-0.770297	-0.770632	0.547711	3	-0.00419801	39	0.686	-0.000422084
2	1	0	1	0	7.4819	-0.759298	-0.759645	0.539803	3	-0.00418604	39	0.708	-0.000410059
2	1	0	1	0	7.5039	-0.7483	-0.748616	0.538126	3	-0.00417419	39	0.73	-0.000402849
2	1	0	1	0	7.5259	-0.737302	-0.737638	0.531182	3	-0.00416245	39	0.752	-0.00039182
2	1	0	1	0	7.5479	-0.726304	-0.726648	0.525489	3	-0.00415081	39	0.774	-0.000381846
2	1	0	1	0	7.5699	-0.715306	-0.715652	0.526277	3	-0.00413924	39	0.796	-0.000376631
2	1	0	1	0	7.5919	-0.704308	-0.704671	0.523033	3	-0.00412771	39	0.818	-0.000368567
2	1	0	1	0	7.6139	-0.69331	-0.693653	0.518072	3	-0.00411623	39	0.84	-0.000359362
2	1	0	1	0	7.6359	-0.682312	-0.682663	0.522614	3	-0.00410478	39	0.862	-0.000356769
2	1	0	1	0	7.6579	-0.671313	-0.671658	0.52098	3	-0.00409332	39	0.884	-0.00034992
2	1	0	1	0	7.6799	-0.660315	-0.660652	0.517477	3	-0.0040819	39	0.906	-0.000341872
2	1	0	1	0	7.7019	-0.649317	-0.649649	0.521093	3	-0.00407046	39	0.928	-0.000338527
2	1	0	1	0	7.7239	-0.638319	-0.638672	0.52386	3	-0.00405899	39	0.95	-0.000334575
2	1	0	1	0	7.7459	-0.627321	-0.627661	0.521981	3	-0.00404748	39	0.972	-0.000327627
2	1	0	1	0	7.7679	-0.616323	-0.616645	0.527908	3	-0.00403592	39	0.994	-0.000325532
2	1	0	1	0	7.7899	-0.605325	-0.605652	0.53348	3	-0.00402427	39	1.016	-0.000323103
2	1	0	1	0	7.8119	-0.594288	-0.594628	0.535029	3	-0.00401255	39	1.038	-0.000318143
2	1	0	1	0	7.8339	-0.583228	-0.583543	0.541008	3	-0.00400072	39	1.06	-0.000315701
2	1	0	1	0	7.8559	-0.57223	-0.57257	0.547114	3	-0.00398877	39	1.082	-0.000313261
2	1	0	1	0	7.8779	-0.561232	-0.561561	0.548091	3	-0.00397672	39	1.104	-0.000307787
2	1	0	1	0	7.8999	-0.550234	-0.550565	0.554633	3	-0.00396458	39	1.126	-0.000305362
2	1	0	1	0	7.9219	-0.539236	-0.53959	0.561322	3	-0.00395231	39	1.148	-0.000302884
2	1	0	1	0	7.9439	-0.528238	-0.528582	0.560786	3	-0.00393998	39	1.17	-0.000296421
2	1	0	1	0	7.9659	-0.51724	-0.517578	0.562736	3	-0.00392761	39	1.192	-0.00029126
2	1	0	1	0	7.9879	-0.506241	-0.50656	0.565403	3	-0.00391521	39	1.214	-0.00028641
2	1	0	1	0	8.0099	-0.495243	-0.49556	0.560148	3	-0.00390283	39	1.236	-0.000277587
2	1	0	1	0	8.0319	-0.484245	-0.484579	0.556138	3	-0.00389054	39	1.258	-0.000269493
2	1	0	1	0	8.0539	-0.473247	-0.473568	0.552852	3	-0.00387835	39	1.28	-0.000261813
2	1	0	1	0	8.0759	-0.462249	-0.462569	0.542802	3	-0.00386629	39	1.302	-0.000251083
2	1	0	1	0	8.0979	-0.451251	-0.451573	0.531811	3	-0.00385445	39	1.324	-0.000240152
2	1	0	1	0	8.1199	-0.440253	-0.440602	0.523467	3	-0.00384284	39	1.346	-0.000230641
2	1	0	1	0	8.1419	-0.429254	-0.42962	0.511	3	-0.00383147	39	1.368	-0.000219536
2	1	0	1	0	8.1639	-0.418256	-0.418583	0.495271	3	-0.00382039	39	1.39	-0.000207312
2	1	0	1	0	8.1859	-0.407258	-0.4076	0.486206	3	-0.00380958	39	1.412	-0.000198178
2	1	0	1	0	8.2079	-0.39626	-0.396602	0.473615	3	-0.00379904	39	1.434	-0.000187837
2	1	0	1	0	8.2299	-0.385262	-0.385605	0.458973	3	-0.00378878	39	1.456	-0.000176982
2	1	0	1	0	8.2519	-0.374264	-0.374602	0.450335	3	-0.00377878	39	1.478	-0.000168696
2	1	0	1	0	8.2739	-0.363266	-0.363606	0.439146	3	-0.00376902	39	1.5	-0.000159676
2	1	0	1	0	8.2959	-0.352268	-0.3526	0.425654	3	-0.0037595	39	1.522	-0.000150086
2	1	0	1	0	8.3179	-0.341269	-0.341613	0.41882	3	-0.00375021	39	1.544	-0.000143074
2	1	0	1	0	8.3399	-0.330271	-0.330612	0.411309	3	-0.00374109	39	1.566	-0.000135984
2	1	0	1	0	8.3619	-0.319273	-0.319612	0.39924	3	-0.00373218	39	1.588	-0.000127602
2	1	0	1	0	8.3839	-0.308275	-0.308599	0.394313	3	-0.00372344	39	1.61	-0.000121685
2	1	0	1	0	8.4008	-0.300026	-0.300319	0.372157	3	-0.00371684	39	1.6269	-0.000111766
2	1	0	1	0	8.4219	-0.310575	-0.310898	0.279453	3	-0.00371033	39	1.648	-8.68814e-05
2	1	0	1	0	8.4439	-0.321573	-0.321907	0.232698	3	-0.00370473	39	1.67	-7.4907e-05
2	1	0	1	0	8.4659	-0.332571	-0.332891	0.198781	3	-0.0037	39	1.692	-6.61725e-05
2	1	0	1	0	8.4879	-0.343569	-0.343901	0.173474	3	-0.00369592	39	1.714	-5.9658e-05
2	1	0	1	0	8.5099	-0.354567	-0.354892	0.148824	3	-0.00369239	39	1.736	-5.28164e-05
2	1	0	1	0	8.5319	-0.365565	-0.365885	0.128927	3	-0.00368933	39	1.758	-4.71723e-05
2	1	0	1	0	8.5539	-0.376564	-0.37689	0.115693	3	-0.00368665	39	1.78	-4.36035e-05
2	1	0	1	0	8.5759	-0.387562	-0.387876	0.0984971	3	-0.00368431	39	1.802	-3.82047e-05
2	1	0	1	0	8.5979	-0.39856	-0.398897	0.0849492	3	-0.00368228	39	1.824	-3.38859e-05
2	1	0	1	0	8.6199	-0.409558	-0.409904	0.0776505	3	-0.00368049	39	1.846	-3.18293e-05
2	1	0	1	0	8.6419	-0.420556	-0.420878	0.0661806	3	-0.00367893	39	1.868	-2.78539e-05
2	1	0	1	0	8.6639	-0.431554	-0.431876	0.0551602	3	-0.00367759	39	1.89	-2.38224e-05
2	1	0	1	0	8.6859	-0.442552	-0.44285	0.0493918	3	-0.00367643	39	1.912	-2.18731e-05
2	1	0	1	0	8.7079	-0.45355	-0.453878	0.0423781	3	-0.00367542	39	1.934	-1.92345e-05
2	1	0	1	0	8.7299	-0.464549	-0.464855	0.0329935	3	-0.00367459	39	1.956	-1.53372e-05
2	1	0	1	0	8.7519	-0.475547	-0.475876	0.0299124	3	-0.00367389	39	1.978	-1.42346e-05
2	1	0	1	0	8.7739	-0.486545	-0.486865	0.0248349	3	-0.00367332	39	2	-1.20912e-05
2	1	0	1	0	8.7959	-0.497543	-0.497849	0.0158317	3	-0.00367287	39	2.022	-7.88179e-06
2	1	0	1	0	8.8179	-0.508541	-0.508899	0.0141147	3	-0.00367253	39	2.044	-7.18295e-06
2	1	0	1	0	8.8399	-0.519539	-0.519853	0.0107905	3	-0.00367228	39	2.066	-5.60946e-06
2	1	0	1	0	8.8619	-0.530537	-0.530866	0.0030815	3	-0.00367213	39	2.088	-1.63586e-06
2	0	0	1	0	8.8839	-0.541535	-0.541854	0.00134468	3	-0.00367207	39	0.002	-7.2862e-07
2	0	0	1	0	8.9059	-0.552534	-0.552862	-0.000470644	3	-0.00367207	39	0.012	2.60201e-07
2	0	0	1	0	8.9279	-0.563532	-0.563844	-0.00723059	3	-0.00367216	39	0.034	4.07692e-06
2	0	0	1	0	8.9499	-0.57453	-0.574849	-0.0090205	3	-0.00367234	39	0.056	5.18543e-06
2	0	0	1	0	8.9719	-0.585528	-0.585837	-0.0101285	3	-0.00367256	39	0.078	5.93365e-06
2	0	0	1	0	8.9939	-0.596626	-0.596933	-0.0161296	3	-0.00367285	39	0.1	9.6283e-06
2	0	0	1	0	9.0159	-0.607624	-0.607946	-0.0179258	3	-0.00367321	39	0.122	1.08979e-05
2	0	0	1	0	9.0379	-0.618622	-0.618962	-0.0177092	3	-0.00367362	39	0.144	1.09613e-05
2	0	0	1	0	9.0599	-0.62962	-0.629949	-0.0225599	3	-0.00367407	39	0.166	1.42116e-05
2	0	0	1	0	9.0819	-0.640619	-0.640938	-0.0257653	3	-0.00367459	39	0.188	1.6514e-05
2	0	0	1	0	9.1039	-0.651617	-0.651915	-0.0248994	3	-0.00367515	39	0.21	1.62323e-05
2	0	0	1	0	9.1259	-0.662615	-0.662936	-0.0292433	3	-0.00367575	39	0.232	1.93864e-05
2	0	0	1	0	9.1479	-0.673613	-0.673896	-0.0334733	3	-0.00367642	39	0.254	2.25576e-05
2	0	0	1	0	9.1699	-0.684611	-0.684919	-0.0311924	3	-0.00367713	39	0.276	2.13643e-05
2	0	0	1	0	9.1919	-0.695609	-0.695911	-0.0344721	3	-0.00367788	39	0.298	2.39895e-05
2	0	0	1	0	9.2139	-0.706608	-0.706922	-0.0399902	3	-0.00367869	39	0.32	2.82699e-05
2	0	0	1	0	9.2359	-0.717606	-0.71792	-0.0393588	3	-0.00367956	39	0.342	2.82565e-05
2	0	0	1	0	9.2579	-0.728604	-0.728916	-0.0422091	3	-0.00368047	39	0.364	3.07669e-05
2	0	0	1	0	9.2799	-0.739602	-0.73991	-0.0488847	3	-0.00368146	39	0.386	3.61703e-05
2	0	0	1	0	9.3019	-0.7506	-0.7509	-0.0486999	3	-0.00368252	39	0.408	3.65687e-05
2	0	0	1	0	9.3239	-0.761598	-0.761905	-0.0511358	3	-0.00368364	39	0.43	3.89606e-05
2	0	0	1	0	9.3459	-0.772596	-0.772895	-0.0602966	3	-0.00368486	39	0.452	4.66029e-05
2	0	0	1	0	9.3679	-0.783594	-0.783891	-0.0620366	3	-0.00368619	39	0.474	4.863e-05
2	0	0	1	0	9.3899	-0.794593	-0.794889	-0.0646479	3	-0.00368761	39	0.496	5.13879e-05
2	0	0	1	0	9.4119	-0.805591	-0.805911	-0.0765827	3	-0.00368916	39	0.518	6.17189e-05
2	0	0	1	0	9.4339	-0.816589	-0.816903	-0.0811588	3	-0.00369087	39	0.54	6.62989e-05
2	0	0	1	0	9.4559	-0.827587	-0.827861	-0.0851179	3	-0.00369271	39	0.562	7.04658e-05
2	0	0	1	0	9.4779	-0.838585	-0.838893	-0.0962418	3	-0.00369472	39	0.584	8.07366e-05
2	0	0	1	0	9.4999	-0.849583	-0.849902	-0.103326	3	-0.0036969	39	0.606	8.78166e-05
2	0	0	1	0	9.5219	-0.860581	-0.860868	-0.10725	3	-0.00369923	39	0.628	9.23281e-05
2	0	0	1	0	9.5439	-0.871579	-0.871869	-0.117722	3	-0.00370171	39	0.65	0.000102638
2	0	0	1	0	9.5659	-0.882578	-0.882879	-0.126642	3	-0.00370438	39	0.672	0.000111809
2	0	0	1	0	9.5879	-0.893576	-0.89386	-0.129392	3	-0.00370719	39	0.694	0.000115658
2	0	0	1	0	9.6099	-0.904574	-0.904851	-0.138865	3	-0.00371015	39	0.716	0.000125652
2	0	0	1	0	9.6319	-0.915572	-0.915853	-0.150251	3	-0.00371331	39	0.738	0.000137608
2	0	0	1	0	9.6539	-0.92657	-0.926893	-0.152997	3	-0.00371664	39	0.76	0.000141812
2	0	0	1	0	9.6759	-0.937568	-0.937869	-0.164222	3	-0.00372015	39	0.782	0.000154018
2	0	0	1	0	9.6979	-0.948566	-0.948862	-0.180566	3	-0.00372392	39	0.804	0.000171333
2	0	0	1	0	9.7199	-0.959565	-0.959856	-0.189436	3	-0.00372795	39	0.826	0.000181831
2	0	0	1	0	9.7419	-0.970563	-0.970856	-0.204826	3	-0.00373231	39	0.848	0.000198856
2	0	0	1	0	9.7639	-0.981561	-0.981867	-0.230876	3	-0.00373709	39	0.87	0.000226689
2	0	0	1	0	9.7859	-0.992559	-0.992845	-0.252548	3	-0.00374238	39	0.892	0.000250742
2	0	0	1	0	9.8079	-1.00356	-1.00386	-0.283501	3	-0.00374829	39	0.914	0.000284596
2	0	0	1	0	9.8299	-1.01456	-1.01486	-0.332125	3	-0.00375505	39	0.936	0.000337062
2	0	0	1	0	9.8519	-1.02555	-1.02586	-0.381834	3	-0.00376287	39	0.958	0.000391708
2	0	0	1	0	9.8739	-1.03655	-1.03686	-0.443798	3	-0.00377195	39	0.98	0.000460156
2	0	0	1	0	9.8959	-1.04755	-1.04785	-0.533659	3	-0.00378267	39	1.002	0.000559194
2	0	0	1	0	9.9179	-1.05855	-1.05884	-0.647929	3	-0.00379557	39	1.024	0.000686055
2	0	0	1	0	9.9399	-1.06955	-1.06986	-0.821673	3	-0.0038116	39	1.046	0.000879072
2	0	0	1	0	9.9619	-1.08054	-1.08082	-1.10752	3	-0.00383271	39	1.068	0.00119703
2	0	0	1	0	9.9839	-1.09154	-1.09185	-1.44964	3	-0.00386095	39	1.09	0.00158279
2	0	0	1	0	10.0059	-1.10254	-1.10285	-1.63645	3	-0.00389529	39	1.112	0.00180475
2	0	0	1	0	10.0279	-1.11354	-1.11387	-1.64391	3	-0.00393169	39	1.134	0.0018311
2	0	0	1	0	10.0499	-1.12454	-1.12484	-1.48962	3	-0.00396633	39	1.156	0.00167559
2	0	0	1	0	10.0719	-1.13553	-1.13584	-1.27071	3	-0.00399668	39	1.178	0.00144331
2	0	0	1	0	10.0939	-1.14653	-1.14684	-1.03452	3	-0.00402206	39	1.2	0.00118643
2	0	0	1	0	10.1159	-1.15753	-1.15786	-0.885738	3	-0.004043	39	1.222	0.00102556
2	0	0	1	0	10.1379	-1.16853	-1.16885	-0.774378	3	-0.00406122	39	1.244	0.000905131
2	0	0	1	0	10.1599	-1.17953	-1.17985	-0.702003	3	-0.0040775	39	1.266	0.000828259
2	0	0	1	0	10.1819	-1.19063	-1.19094	-0.653012	3	-0.00409234	39	1.288	0.000777698
2	0	0	1	0	10.2039	-1.20162	-1.20196	-0.603932	3	-0.00410613	39	1.31	0.000725903
2	0	0	1	0	10.2259	-1.21262	-1.21293	-0.588015	3	-0.00411924	39	1.332	0.00071322
2	0	0	1	0	10.2479	-1.22362	-1.22392	-0.595252	3	-0.00413221	39	1.354	0.000728543
2	0	0	1	0	10.2699	-1.23462	-1.23493	-0.615882	3	-0.00414547	39	1.376	0.000760573
2	0	0	1	0	10.2919	-1.24562	-1.24594	-0.676379	3	-0.00415968	39	1.398	0.00084273
2	0	0	1	0	10.3139	-1.25661	-1.25694	-0.798804	3	-0.00417578	39	1.42	0.00100405
2	0	0	1	0	10.3359	-1.26761	-1.26791	-0.998477	3	-0.00419532	39	1.442	0.00126598
2	0	0	1	0	10.3579	-1.27861	-1.27893	-1.31599	3	-0.0042207	39	1.464	0.00168305
2	0	0	1	0	10.3799	-1.28961	-1.28992	-1.72109	3	-0.00425398	39	1.486	0.00222008
2	0	0	1	0	10.4019	-1.30061	-1.30092	-2.22414	3	-0.00429711	39	1.508	0.00289342
2	0	0	1	0	10.4239	-1.3116	-1.3119	-2.8698	3	-0.00435291	39	1.53	0.00376489
2	0	0	1	0	10.4459	-1.3226	-1.32291	-3.70211	3	-0.00442505	39	1.552	0.00489757
2	0	0	1	0	10.4679	-1.3336	-1.33392	-4.64985	3	-0.00451662	39	1.574	0.00620255
2	0	0	1	0	10.4899	-1.3446	-1.34492	-5.68373	3	-0.00463015	39	1.596	0.00764419
2	0	0	1	1	10.5063	-1.3473	-1.34764	-6.07793	3	-0.004729	39	1.6124	0.00819089
2	0	0	1	1	10.5283	-1.3363	-1.33663	-5.12892	3	-0.00485243	39	1.6344	0.00685546
2	0	0	1	1	10.5503	-1.3253	-1.32563	-4.21968	3	-0.00495503	39	1.6564	0.00559374
2	0	0	1	1	10.5723	-1.3143	-1.31461	-3.36955	3	-0.00503833	39	1.6784	0.00442963
2	0	0	1	1	10.5943	-1.30331	-1.30364	-2.6235	3	-0.00510407	39	1.7004	0.00342009
2	0	0	1	1	10.6163	-1.29231	-1.29264	-2.01057	3	-0.0051547	39	1.7224	0.00259894
2	0	0	1	1	10.6383	-1.28131	-1.28162	-1.51099	3	-0.00519322	39	1.7444	0.00193651
2	0	0	1	1	10.6603	-1.27031	-1.27064	-1.13165	3	-0.0052221	39	1.7664	0.00143792
2	0	0	1	1	10.6823	-1.25931	-1.25964	-0.861755	3	-0.00524381	39	1.7884	0.00108551
2	0	0	1	1	10.7043	-1.24832	-1.24862	-0.65093	3	-0.00526032	39	1.8104	0.000812765
2	0	0	1	1	10.7263	-1.23732	-1.23763	-0.497733	3	-0.00527285	39	1.8324	0.00061601
2	0	0	1	1	10.7483	-1.22632	-1.22664	-0.398412	3	-0.00528265	39	1.8544	0.000488707
2	0	0	1	1	10.7703	-1.21532	-1.21563	-0.310417	3	-0.00529044	39	1.8764	0.000377354
2	0	0	1	1	10.7923	-1.20432	-1.20464	-0.245577	3	-0.00529657	39	1.8984	0.000295833
2	0	0	1	1	10.8143	-1.19332	-1.19363	-0.200379	3	-0.00530144	39	1.9204	0.000239177
2	0	0	1	1	10.8363	-1.18224	-1.18254	-0.145636	3	-0.00530526	39	1.9424	0.000172221
2	0	0	1	1	10.8583	-1.17123	-1.17155	-0.10984	3	-0.00530814	39	1.9644	0.000128684
2	0	0	1	1	10.8803	-1.16023	-1.16056	-0.0843496	3	-0.00531027	39	1.9864	9.78928e-05
2	0	0	1	1	10.9023	-1.14923	-1.14955	-0.0470022	3	-0.00531168	39	2.0084	5.40316e-05
2	0	0	1	1	10.9243	-1.13823	-1.13856	-0.0143901	3	-0.00531238	39	2.0304	1.6384e-05
2	1	0	1	1	10.9463	-1.12724	-1.12755	0.00417206	3	-0.00531249	39	0.008	-4.7042e-06
2	1	0	1	1	10.9683	-1.11624	-1.11654	0.0334981	3	-0.00531203	39	0.03	-3.74021e-05
2	1	0	1	1	10.9903	-1.10524	-1.10554	0.0628727	3	-0.00531098	39	0.052	-6.95081e-05
2	1	0	1	1	11.0123	-1.09424	-1.09456	0.0786172	3	-0.00530943	39	0.074	-8.60516e-05
2	1	0	1	1	11.0343	-1.08324	-1.08355	0.0991762	3	-0.00530745	39	0.096	-0.000107462
2	1	0	1	1	11.0563	-1.07225	-1.07255	0.124956	3	-0.00530501	39	0.118	-0.000134021
2	1	0	1	1	11.0783	-1.06125	-1.06158	0.141889	3	-0.00530209	39	0.14	-0.000150626
2	1	0	1	1	11.1003	-1.05025	-1.05059	0.170538	3	-0.00529864	39	0.162	-0.000179165
2	1	0	1	1	11.1223	-1.03925	-1.03958	0.221269	3	-0.00529438	39	0.184	-0.000230027
2	1	0	1	1	11.1443	-1.02825	-1.02857	0.278545	3	-0.00528895	39	0.206	-0.000286504
2	1	0	1	1	11.1663	-1.01725	-1.01756	0.358474	3	-0.00528195	39	0.228	-0.00036477
2	1	0	1	1	11.1883	-1.00626	-1.00658	0.472708	3	-0.00527281	39	0.25	-0.000475817
2	1	0	1	1	11.2103	-0.995258	-0.995583	0.577114	3	-0.00526129	39	0.272	-0.000574565
2	1	0	1	1	11.2323	-0.98426	-0.984569	0.644936	3	-0.00524773	39	0.294	-0.000634984
2	1	0	1	1	11.2543	-0.973262	-0.97359	0.666852	3	-0.00523313	39	0.316	-0.000649241
2	1	0	1	1	11.2763	-0.962264	-0.962593	0.61804	3	-0.00521895	39	0.338	-0.00059492
2	1	0	1	1	11.2983	-0.951266	-0.951606	0.546868	3	-0.00520617	39	0.36	-0.000520403
2	1	0	1	1	11.3203	-0.940268	-0.940585	0.516588	3	-0.00519451	39	0.382	-0.000485894
2	1	0	1	1	11.3423	-0.92927	-0.929598	0.507712	3	-0.00518332	39	0.404	-0.000471968
2	1	0	1	1	11.3643	-0.918271	-0.918596	0.50684	3	-0.00517218	39	0.426	-0.000465582
2	1	0	1	1	11.3863	-0.907273	-0.907612	0.531906	3	-0.00516073	39	0.448	-0.000482764
2	1	0	1	1	11.4083	-0.896275	-0.896599	0.562876	3	-0.00514874	39	0.47	-0.000504674
2	1	0	1	1	11.4303	-0.885277	-0.885619	0.582322	3	-0.00513614	39	0.492	-0.000515715
2	1	0	1	1	11.4523	-0.874279	-0.874602	0.613719	3	-0.00512292	39	0.514	-0.00053676
2	1	0	1	1	11.4743	-0.863281	-0.863608	0.636081	3	-0.00510917	39	0.536	-0.000549324
2	1	0	1	1	11.4963	-0.852283	-0.852593	0.631647	3	-0.00509521	39	0.558	-0.000538538
2	1	0	1	1	11.5183	-0.841285	-0.841619	0.621674	3	-0.00508136	39	0.58	-0.000523213
2	1	0	1	1	11.5403	-0.830286	-0.830599	0.61189	3	-0.00506779	39	0.602	-0.000508236
2	1	0	1	1	11.5623	-0.819288	-0.819621	0.588187	3	-0.00505461	39	0.624	-0.00048209
2	1	0	1	1	11.5843	-0.80829	-0.808623	0.569131	3	-0.00504186	39	0.646	-0.000460212
2	1	0	1	1	11.6063	-0.797292	-0.7976	0.558569	3	-0.00502946	39	0.668	-0.000445515
2	1	0	1	1	11.6283	-0.786294	-0.786641	0.54099	3	-0.00501738	39	0.69	-0.000425565
2	1	0	1	1	11.6503	-0.775296	-0.775638	0.527465	3	-0.00500562	39	0.712	-0.000409122
2	1	0	1	1	11.6723	-0.764298	-0.764613	0.522313	3	-0.00499408	39	0.734	-0.000399368
2	1	0	1	1	11.6943	-0.7533	-0.753637	0.512884	3	-0.00498271	39	0.756	-0.000386529
2	1	0	1	1	11.7163	-0.742301	-0.742643	0.50389	3	-0.00497151	39	0.778	-0.000374211
2	1	0	1	1	11.7383	-0.731303	-0.731646	0.504103	3	-0.00496043	39	0.8	-0.000368824
2	1	0	1	1	11.7603	-0.720305	-0.720669	0.498476	3	-0.00494942	39	0.822	-0.000359236
2	1	0	1	1	11.7823	-0.709307	-0.709646	0.492298	3	-0.0049385	39	0.844	-0.000349357
2	1	0	1	1	11.8043	-0.698309	-0.698615	0.494968	3	-0.00492762	39	0.866	-0.000345792
2	1	0	1	1	11.8263	-0.687311	-0.687649	0.49393	3	-0.00491677	39	0.888	-0.00033965
2	1	0	1	1	11.8483	-0.676313	-0.676628	0.489279	3	-0.00490596	39	0.91	-0.000331059
2	1	0	1	1	11.8703	-0.665314	-0.665655	0.491337	3	-0.00489516	39	0.932	-0.000327061
2	1	0	1	1	11.8923	-0.654316	-0.65467	0.49266	3	-0.00488435	39	0.954	-0.00032253
2	1	0	1	1	11.9143	-0.643318	-0.64365	0.489124	3	-0.00487355	39	0.976	-0.000314825
2	1	0	1	1	11.9363	-0.63232	-0.632661	0.492449	3	-0.00486274	39	0.998	-0.000311553
2	1	0	1	1	11.9583	-0.621322	-0.62166	0.495403	3	-0.0048519	39	1.02	-0.000307972
2	1	0	1	1	11.9803	-0.610324	-0.610682	0.492926	3	-0.00484103	39	1.042	-0.000301021
2	1	0	1	1	12.0023	-0.599326	-0.599657	0.496934	3	-0.00483012	39	1.064	-0.00029799
2	1	0	1	1	12.0243	-0.588228	-0.588566	0.502886	3	-0.00481914	39	1.086	-0.000295982
2	1	0	1	1	12.0463	-0.577229	-0.577577	0.502114	3	-0.00480809	39	1.108	-0.00029001
2	1	0	1	1	12.0683	-0.566231	-0.5666	0.505615	3	-0.00479698	39	1.13	-0.000286482
2	1	0	1	1	12.0903	-0.555233	-0.555577	0.510684	3	-0.0047858	39	1.152	-0.000283724
2	1	0	1	1	12.1123	-0.544235	-0.544565	0.512094	3	-0.00477455	39	1.174	-0.000278869
2	1	0	1	1	12.1343	-0.533237	-0.533604	0.51325	3	-0.00476326	39	1.196	-0.000273872
2	1	0	1	1	12.1563	-0.522239	-0.52257	0.519099	3	-0.00475191	39	1.218	-0.000271265
2	1	0	1	1	12.1783	-0.511241	-0.51159	0.51653	3	-0.00474053	39	1.24	-0.000264251
2	1	0	1	1	12.2003	-0.500243	-0.500579	0.51474	3	-0.00472917	39	1.262	-0.000257668
2	1	0	1	1	12.2223	-0.489244	-0.489597	0.515205	3	-0.00471784	39	1.284	-0.000252243
2	1	0	1	1	12.2443	-0.478246	-0.478576	0.508966	3	-0.00470659	39	1.306	-0.000243579
2	1	0	1	1	12.2663	-0.467248	-0.467597	0.500992	3	-0.00469546	39	1.328	-0.000234262
2	1	0	1	1	12.2883	-0.45625	-0.45659	0.497542	3	-0.00468448	39	1.35	-0.000227172
2	1	0	1	1	12.3103	-0.445252	-0.445577	0.487397	3	-0.00467366	39	1.372	-0.000217173
2	1	0	1	1	12.3323	-0.434254	-0.434599	0.475486	3	-0.00466306	39	1.394	-0.000206646
2	1	0	1	1	12.3543	-0.423256	-0.423618	0.468762	3	-0.00465267	39	1.416	-0.000198576
2	1	0	1	1	12.3763	-0.412257	-0.412603	0.458296	3	-0.00464248	39	1.438	-0.000189094
2	1	0	1	1	12.3983	-0.401259	-0.40159	0.445443	3	-0.00463253	39	1.46	-0.000178885
2	1	0	1	1	12.4203	-0.390261	-0.390585	0.438192	3	-0.0046228	39	1.482	-0.000171151
2	1	0	1	1	12.4423	-0.379263	-0.379585	0.42987	3	-0.00461328	39	1.504	-0.000163172
2	1	0	1	1	12.4643	-0.368265	-0.368604	0.417291	3	-0.00460396	39	1.526	-0.000153815
2	1	0	1	1	12.4863	-0.357267	-0.357604	0.410726	3	-0.00459485	39	1.548	-0.000146877
2	1	0	1	1	12.5083	-0.346269	-0.346601	0.403263	3	-0.00458591	39	1.57	-0.000139771
2	1	0	1	1	12.5303	-0.33527	-0.335609	0.39177	3	-0.00457716	39	1.592	-0.000131482
2	1	0	1	1	12.5523	-0.324272	-0.324593	0.385879	3	-0.0045686	39	1.614	-0.000125254
2	1	0	1	1	12.5743	-0.313274	-0.313615	0.380824	3	-0.00456018	39	1.636	-0.000119432
2	1	0	1	1	12.5963	-0.302276	-0.302614	0.372607	3	-0.0045519	39	1.658	-0.000112756
2	1	0	1	1	12.6183	-0.291278	-0.291593	0.366416	3	-0.00454376	39	1.68	-0.000106844
2	1	0	1	1	12.6403	-0.28028	-0.280612	0.363112	3	-0.00453574	39	1.702	-0.000101894
2	1	0	1	1	12.6623	-0.269282	-0.269611	0.356243	3	-0.00452782	39	1.724	-9.6047e-05
2	1	0	1	1	12.6843	-0.258284	-0.258634	0.350494	3	-0.00452004	39	1.746	-9.06498e-05
2	1	0	1	1	12.7063	-0.247285	-0.247614	0.34832	3	-0.00451235	39	1.768	-8.6249e-05
2	1	0	1	1	12.7283	-0.236287	-0.236621	0.342889	3	-0.00450476	39	1.79	-8.11345e-05
2	1	0	1	1	12.7503	-0.225289	-0.225632	0.337384	3	-0.00449728	39	1.812	-7.61245e-05
2	1	0	0	1	12.7572	-0.22184	-0.222211	0.338528	3	-0.00449494	39	1.8189	-7.52246e-05