File: Fig 3/Fig 3_RRDE-np-Fe2O3_100mvs_disk.mpt
mode	ox/red	error	control changes	Ns changes	counter inc.	Ns	time/s	control/V	Ewe/V	<I>/mA	dQ/C	(Q-Qo)/C	I Range	Q charge/discharge/mA.h	half cycle	Energy charge/W.h	Energy discharge/W.h	Capacitance charge/µF	Capacitance discharge/µF	step time/s	Q discharge/mA.h	Q charge/mA.h	Capacity/mA.h	Efficiency/%	cycle number	P/W
2	1	1	0	0	0	0	0.266	-0.300004	-0.450728	-0.250014	-6.65037e-05	-6.65037e-05	41	-1.84732e-05	0	0.000000000000000E+000	8.32641e-09	0.000000000000000E+000	0.000000000000000E+000	0.266	1.84732e-05	0.000000000000000E+000	1.84732e-05	0.0000000E+000	0.000000000000000E+000	0.000112688
2	1	0	0	0	0	0	0.7096	-0.300004	-0.300144	0.0396405	-3.63712e-05	-3.63712e-05	41	8.37014e-06	2	2.51215e-09	0.000000000000000E+000	1726.97	0.000000000000000E+000	0.3	0.000000000000000E+000	8.37014e-06	8.37014e-06	0.0000000E+000	1	-1.18979e-05
2	1	0	0	0	0	0	1.1096	-0.300004	-0.300141	0.00776984	-3.04634e-05	-3.04634e-05	41	1.00112e-05	2	3.00472e-09	0.000000000000000E+000	2066.02	0.000000000000000E+000	0.7	0.000000000000000E+000	1.00112e-05	1.00112e-05	0.0000000E+000	1	-2.33205e-06
2	1	0	0	0	0	0	1.5096	-0.300004	-0.300133	0.00171313	-2.90524e-05	-2.90524e-05	41	1.04031e-05	2	3.12236e-09	0.000000000000000E+000	2147.84	0.000000000000000E+000	1.1	0.000000000000000E+000	1.04031e-05	1.04031e-05	0.0000000E+000	1	-5.14168e-07
2	0	0	0	0	0	0	1.9096	-0.300004	-0.300095	-0.000685844	-2.90383e-05	-2.90383e-05	41	-2.73457e-08	3	3.13174e-09	8.20664e-12	2147.23	1980.36	0.1	2.73457e-08	0.000000000000000E+000	2.73457e-08	0.0000000E+000	1	2.05818e-07
2	0	0	0	0	0	0	2.3096	-0.300004	-0.300144	-0.00179954	-2.96171e-05	-2.96171e-05	41	-1.88114e-07	3	3.13174e-09	5.64616e-11	2147.23	0.000000000000000E+000	0.5	1.88114e-07	0.000000000000000E+000	1.88114e-07	0.0000000E+000	1	5.40123e-07
2	0	0	0	0	0	0	2.7096	-0.300004	-0.300148	-0.00246394	-3.05138e-05	-3.05138e-05	41	-4.37189e-07	3	3.13174e-09	1.31223e-10	2147.23	412583	0.9	4.37189e-07	0.000000000000000E+000	4.37189e-07	0.0000000E+000	1	7.39548e-07
2	0	0	0	0	0	0	3.1096	-0.300004	-0.300167	-0.00285055	-3.16064e-05	-3.16064e-05	41	-7.40697e-07	3	3.13174e-09	2.22334e-10	2147.23	116350	1.3	7.40697e-07	0.000000000000000E+000	7.40697e-07	0.0000000E+000	1	8.55643e-07
2	0	0	0	0	0	0	3.5096	-0.300004	-0.300152	-0.00300859	-3.27849e-05	-3.27849e-05	41	-1.06804e-06	3	3.13174e-09	3.20591e-10	2147.23	503966	1.7	1.06804e-06	0.000000000000000E+000	1.06804e-06	0.0000000E+000	1	9.03033e-07
2	0	0	0	0	0	0	3.9096	-0.300004	-0.300217	-0.00317049	-3.40303e-05	-3.40303e-05	41	-1.41401e-06	3	3.13174e-09	4.24453e-10	2147.23	70089	2.1	1.41401e-06	0.000000000000000E+000	1.41401e-06	0.0000000E+000	1	9.51834e-07
2	0	0	0	0	0	0	4.3096	-0.300004	-0.300167	-0.00319917	-3.53041e-05	-3.53041e-05	41	-1.76783e-06	3	3.13174e-09	5.30656e-10	2147.23	277694	2.5	1.76783e-06	0.000000000000000E+000	1.76783e-06	0.0000000E+000	1	9.60287e-07
2	0	0	0	0	0	0	4.7096	-0.300004	-0.30019	-0.00324609	-3.65989e-05	-3.65989e-05	41	-2.12751e-06	3	3.13174e-09	6.38622e-10	2147.23	166988	2.9	2.12751e-06	0.000000000000000E+000	2.12751e-06	0.0000000E+000	1	9.74445e-07
2	0	0	0	0	0	0	5.1096	-0.300004	-0.300183	-0.00325262	-3.79014e-05	-3.79014e-05	41	-2.48931e-06	3	3.13174e-09	7.47217e-10	2147.23	234554	3.3	2.48931e-06	0.000000000000000E+000	2.48931e-06	0.0000000E+000	1	9.76381e-07
2	0	0	0	0	0	0	5.5096	-0.300004	-0.300137	-0.00321969	-3.9191e-05	-3.9191e-05	41	-2.84752e-06	3	3.13174e-09	8.54731e-10	2147.23	1.3384e+06	3.7	2.84752e-06	0.000000000000000E+000	2.84752e-06	0.0000000E+000	1	9.66347e-07
2	0	0	0	0	0	0	5.9096	-0.300004	-0.300129	-0.00319027	-4.0477e-05	-4.0477e-05	41	-3.20476e-06	3	3.13174e-09	9.61958e-10	2147.23	753155	4.1	3.20476e-06	0.000000000000000E+000	3.20476e-06	0.0000000E+000	1	9.57493e-07
2	0	0	0	0	0	0	6.3096	-0.300004	-0.300144	-0.0031225	-4.17409e-05	-4.17409e-05	41	-3.55582e-06	3	3.13174e-09	1.06733e-09	2147.23	0.000000000000000E+000	4.5	3.55582e-06	0.000000000000000E+000	3.55582e-06	0.0000000E+000	1	9.37202e-07
2	0	0	0	0	0	0	6.7096	-0.300004	-0.300167	-0.00293179	-4.29347e-05	-4.29347e-05	41	-3.88745e-06	3	3.13174e-09	1.16687e-09	2147.23	610647	4.9	3.88745e-06	0.000000000000000E+000	3.88745e-06	0.0000000E+000	1	8.80028e-07
2	0	0	0	0	0	0	7.1096	-0.300004	-0.300141	-0.00229269	-4.39925e-05	-4.39925e-05	41	-4.18128e-06	3	3.13174e-09	1.25506e-09	2147.23	3.91536e+06	5.3	4.18128e-06	0.000000000000000E+000	4.18128e-06	0.0000000E+000	1	6.88129e-07
2	1	0	0	0	0	0	7.5096	-0.300004	-0.300179	0.00260539	-4.39173e-05	-4.39173e-05	41	9.04431e-08	4	2.71497e-11	0.000000000000000E+000	10648.3	0.000000000000000E+000	0.1	0.000000000000000E+000	9.04431e-08	9.04431e-08	0.0000000E+000	2	-7.82084e-07
2	1	0	0	0	0	0	7.9096	-0.300004	-0.300144	0.015242	-3.99277e-05	-3.99277e-05	41	1.19868e-06	4	3.59781e-10	0.000000000000000E+000	66419.9	0.000000000000000E+000	0.5	0.000000000000000E+000	1.19868e-06	1.19868e-06	0.0000000E+000	2	-4.5748e-06
2	1	0	0	0	0	0	8.3096	-0.300004	-0.300202	0.0320055	-2.96485e-05	-2.96485e-05	41	4.05401e-06	4	1.21685e-09	0.000000000000000E+000	1.91292e+06	0.000000000000000E+000	0.9	0.000000000000000E+000	4.05401e-06	4.05401e-06	0.0000000E+000	2	-9.60811e-06
2	1	0	0	0	0	0	8.7096	-0.300004	-0.300171	0.0482259	-1.26804e-05	-1.26804e-05	41	8.76737e-06	4	2.63158e-09	0.000000000000000E+000	826102	0.000000000000000E+000	1.3	0.000000000000000E+000	8.76737e-06	8.76737e-06	0.0000000E+000	2	-1.4476e-05
2	1	0	0	0	0	0	9.1096	-0.300004	-0.30016	0.0528514	9.2429e-06	9.2429e-06	41	1.48572e-05	4	4.45946e-09	0.000000000000000E+000	1.0766e+06	0.000000000000000E+000	1.7	0.000000000000000E+000	1.48572e-05	1.48572e-05	0.0000000E+000	2	-1.58638e-05
2	1	0	0	0	0	0	9.5096	-0.300004	-0.30016	0.0238445	2.26983e-05	2.26983e-05	41	1.85948e-05	4	5.5814e-09	0.000000000000000E+000	1.34744e+06	0.000000000000000E+000	2.1	0.000000000000000E+000	1.85948e-05	1.85948e-05	0.0000000E+000	2	-7.15717e-06
2	1	0	0	0	0	0	9.9096	-0.300004	-0.300156	0.0112529	2.87511e-05	2.87511e-05	41	2.02761e-05	4	6.08607e-09	0.000000000000000E+000	1.3645e+06	0.000000000000000E+000	2.5	0.000000000000000E+000	2.02761e-05	2.02761e-05	0.0000000E+000	2	-3.37762e-06
2	1	0	0	0	0	0	10.3096	-0.300004	-0.300179	0.0050082	3.16229e-05	3.16229e-05	41	2.10738e-05	4	6.32552e-09	0.000000000000000E+000	2.48113e+06	0.000000000000000E+000	2.9	0.000000000000000E+000	2.10738e-05	2.10738e-05	0.0000000E+000	2	-1.50336e-06
2	1	0	0	0	0	0	10.7096	-0.300004	-0.300148	0.00109687	3.25602e-05	3.25602e-05	41	2.13342e-05	4	6.40366e-09	0.000000000000000E+000	1.25589e+06	0.000000000000000E+000	3.3	0.000000000000000E+000	2.13342e-05	2.13342e-05	0.0000000E+000	2	-3.29223e-07
2	0	0	0	0	0	0	11.1096	-0.300004	-0.30016	-0.000220488	3.27209e-05	3.27209e-05	41	-6.12467e-09	5	6.4189e-09	1.83846e-12	1.6785e+06	0.000000000000000E+000	0.000000000000000E+000	6.12467e-09	0.000000000000000E+000	6.12467e-09	0.0000000E+000	2	6.61817e-08
2	0	0	0	0	0	0	11.5096	-0.300004	-0.300179	-0.00181308	3.22011e-05	3.22011e-05	41	-1.50526e-07	5	6.4189e-09	4.51809e-11	1.6785e+06	28366.6	0.4	1.50526e-07	0.000000000000000E+000	1.50526e-07	0.0000000E+000	2	5.44249e-07
2	0	0	0	0	0	0	11.9096	-0.300004	-0.300137	-0.00235833	3.13169e-05	3.13169e-05	41	-3.96117e-07	5	6.4189e-09	1.18896e-10	1.6785e+06	62142	0.8	3.96117e-07	0.000000000000000E+000	3.96117e-07	0.0000000E+000	2	7.07822e-07
2	0	0	0	0	0	0	12.3096	-0.300004	-0.300106	-0.00247942	3.03375e-05	3.03375e-05	41	-6.68176e-07	5	6.4189e-09	2.0056e-10	1.6785e+06	44940.4	1.2	6.68176e-07	0.000000000000000E+000	6.68176e-07	0.0000000E+000	2	7.44089e-07
2	0	0	0	0	0	0	12.7096	-0.300004	-0.300133	-0.00255551	2.93248e-05	2.93248e-05	41	-9.49496e-07	5	6.4189e-09	2.84993e-10	1.6785e+06	127723	1.6	9.49496e-07	0.000000000000000E+000	9.49496e-07	0.0000000E+000	2	7.66993e-07
2	0	0	0	0	0	0	13.1096	-0.300004	-0.300167	-0.00256072	2.82993e-05	2.82993e-05	41	-1.23434e-06	5	6.4189e-09	3.70494e-10	1.6785e+06	582435	2	1.23434e-06	0.000000000000000E+000	1.23434e-06	0.0000000E+000	2	7.68643e-07
2	0	0	0	0	0	0	13.5096	-0.300004	-0.30016	-0.0025319	2.72773e-05	2.72773e-05	41	-1.51823e-06	5	6.4189e-09	4.55703e-10	1.6785e+06	0.000000000000000E+000	2.4	1.51823e-06	0.000000000000000E+000	1.51823e-06	0.0000000E+000	2	7.59973e-07
2	0	0	0	0	0	0	13.9096	-0.300004	-0.300251	-0.00213847	2.63302e-05	2.63302e-05	41	-1.78133e-06	5	6.4189e-09	5.34678e-10	1.6785e+06	69908.2	2.8	1.78133e-06	0.000000000000000E+000	1.78133e-06	0.0000000E+000	2	6.42078e-07
2	1	0	0	0	0	0	14.3096	-0.300004	-0.300156	0.00185341	2.63195e-05	2.63195e-05	41	6.41077e-08	6	1.92419e-11	0.000000000000000E+000	7540.36	0.000000000000000E+000	0.1	0.000000000000000E+000	6.41077e-08	6.41077e-08	0.0000000E+000	3	-5.56312e-07
2	1	0	0	0	0	0	14.7096	-0.300004	-0.300125	0.00668709	2.83147e-05	2.83147e-05	41	6.18336e-07	6	1.85595e-10	0.000000000000000E+000	0.000000000000000E+000	0.000000000000000E+000	0.5	0.000000000000000E+000	6.18336e-07	6.18336e-07	0.0000000E+000	3	-2.00696e-06
2	1	0	0	0	0	0	15.1096	-0.300004	-0.300179	0.0118481	3.21859e-05	3.21859e-05	41	1.69367e-06	6	5.08385e-10	0.000000000000000E+000	113914	0.000000000000000E+000	0.9	0.000000000000000E+000	1.69367e-06	1.69367e-06	0.0000000E+000	3	-3.55654e-06
2	1	0	0	0	0	0	15.5096	-0.300004	-0.300186	0.0198802	3.89322e-05	3.89322e-05	41	3.56764e-06	6	1.0709e-09	0.000000000000000E+000	210018	0.000000000000000E+000	1.3	0.000000000000000E+000	3.56764e-06	3.56764e-06	0.0000000E+000	3	-5.96775e-06
2	1	0	0	0	0	0	15.9096	-0.300004	-0.300137	0.0175148	4.68365e-05	4.68365e-05	41	5.76329e-06	6	1.72997e-09	0.000000000000000E+000	1.80827e+06	0.000000000000000E+000	1.7	0.000000000000000E+000	5.76329e-06	5.76329e-06	0.0000000E+000	3	-5.25684e-06
2	1	0	0	0	0	0	16.3096	-0.300004	-0.300141	0.006742	5.11024e-05	5.11024e-05	41	6.94826e-06	6	2.08563e-09	0.000000000000000E+000	1.6361e+06	0.000000000000000E+000	2.1	0.000000000000000E+000	6.94826e-06	6.94826e-06	0.0000000E+000	3	-2.02355e-06
2	0	0	0	0	0	0	16.7096	-0.300004	-0.300186	0.000447717	5.20503e-05	5.20503e-05	41	7.21155e-06	6	2.16466e-09	0.000000000000000E+000	424319	0.000000000000000E+000	2.5	0.000000000000000E+000	7.21155e-06	7.21155e-06	0.0000000E+000	3	-1.34399e-07
2	0	0	0	0	0	0	17.1096	-0.300004	-0.300186	-0.00163958	5.16184e-05	5.16184e-05	41	-1.19969e-07	7	2.16466e-09	3.60118e-11	424319	18820.5	0.3	1.19969e-07	0.000000000000000E+000	1.19969e-07	0.0000000E+000	3	4.92179e-07
2	0	0	0	0	0	0	17.5096	-0.300004	-0.300183	-0.00218509	5.08038e-05	5.08038e-05	41	-3.46231e-07	7	2.16466e-09	1.03929e-10	424319	65247.1	0.7	3.46231e-07	0.000000000000000E+000	3.46231e-07	0.0000000E+000	3	6.55927e-07
2	0	0	0	0	0	0	17.9096	-0.300004	-0.300129	-0.00233791	4.98881e-05	4.98881e-05	41	-6.00596e-07	7	2.16466e-09	1.80276e-10	424319	62868	1.1	6.00596e-07	0.000000000000000E+000	6.00596e-07	0.0000000E+000	3	7.01675e-07
2	0	0	0	0	0	0	18.3096	-0.300004	-0.300095	-0.00238207	4.89389e-05	4.89389e-05	41	-8.64269e-07	7	2.16466e-09	2.59414e-10	424319	45214.5	1.5	8.64269e-07	0.000000000000000E+000	8.64269e-07	0.0000000E+000	3	7.14847e-07
2	0	0	0	0	0	0	18.7096	-0.300004	-0.300186	-0.00246714	4.79695e-05	4.79695e-05	41	-1.13355e-06	7	2.16466e-09	3.4024e-10	424319	178060	1.9	1.13355e-06	0.000000000000000E+000	1.13355e-06	0.0000000E+000	3	7.40602e-07
2	0	0	0	0	0	0	19.1096	-0.300004	-0.300179	-0.00243792	4.69925e-05	4.69925e-05	41	-1.40493e-06	7	2.16466e-09	4.21703e-10	424319	330817	2.3	1.40493e-06	0.000000000000000E+000	1.40493e-06	0.0000000E+000	3	7.31811e-07
2	0	0	0	0	0	0	19.5096	-0.300004	-0.300156	-0.0024504	4.60092e-05	4.60092e-05	41	-1.67808e-06	7	2.16466e-09	5.03696e-10	424319	791819	2.7	1.67808e-06	0.000000000000000E+000	1.67808e-06	0.0000000E+000	3	7.35501e-07
2	0	0	0	0	0	0	19.9096	-0.300004	-0.300129	-0.00248026	4.5023e-05	4.5023e-05	41	-1.95203e-06	7	2.16466e-09	5.85924e-10	424319	204330	3.1	1.95203e-06	0.000000000000000E+000	1.95203e-06	0.0000000E+000	3	7.44397e-07
2	0	0	0	0	0	0	20.3096	-0.300004	-0.300144	-0.00248769	4.40274e-05	4.40274e-05	41	-2.22859e-06	7	2.16466e-09	6.68927e-10	424319	419975	3.5	2.22859e-06	0.000000000000000E+000	2.22859e-06	0.0000000E+000	3	7.46667e-07
2	0	0	0	0	0	0	20.7096	-0.300004	-0.300141	-0.00250448	4.30336e-05	4.30336e-05	41	-2.50464e-06	7	2.16466e-09	7.51781e-10	424319	392922	3.9	2.50464e-06	0.000000000000000E+000	2.50464e-06	0.0000000E+000	3	7.51696e-07
2	0	0	0	0	0	0	21.1096	-0.300004	-0.300148	-0.00249318	4.20333e-05	4.20333e-05	41	-2.78249e-06	7	2.16466e-09	8.35181e-10	424319	655193	4.3	2.78249e-06	0.000000000000000E+000	2.78249e-06	0.0000000E+000	3	7.48322e-07
2	0	0	0	0	0	0	21.5096	-0.300004	-0.300144	-0.00248498	4.104e-05	4.104e-05	41	-3.0584e-06	7	2.16466e-09	9.17987e-10	424319	576353	4.7	3.0584e-06	0.000000000000000E+000	3.0584e-06	0.0000000E+000	3	7.45854e-07
2	0	0	0	0	0	0	21.9096	-0.300004	-0.300141	-0.00250711	4.00387e-05	4.00387e-05	41	-3.33654e-06	7	2.16466e-09	1.00148e-09	424319	524109	5.1	3.33654e-06	0.000000000000000E+000	3.33654e-06	0.0000000E+000	3	7.52486e-07
2	0	0	0	0	0	0	22.3096	-0.300004	-0.300225	-0.00248719	3.90442e-05	3.90442e-05	41	-3.61279e-06	7	2.16466e-09	1.0844e-09	424319	212676	5.5	3.61279e-06	0.000000000000000E+000	3.61279e-06	0.0000000E+000	3	7.46716e-07
2	0	0	0	0	0	0	22.7096	-0.300004	-0.30019	-0.00249161	3.80527e-05	3.80527e-05	41	-3.88821e-06	7	2.16466e-09	1.16707e-09	424319	523029	5.9	3.88821e-06	0.000000000000000E+000	3.88821e-06	0.0000000E+000	3	7.47957e-07
2	0	0	0	0	0	0	23.1096	-0.300004	-0.300133	-0.0024863	3.7056e-05	3.7056e-05	41	-4.16507e-06	7	2.16466e-09	1.25017e-09	424319	490374	6.3	4.16507e-06	0.000000000000000E+000	4.16507e-06	0.0000000E+000	3	7.4622e-07
2	0	0	0	0	0	0	23.5096	-0.300004	-0.300121	-0.00247768	3.6065e-05	3.6065e-05	41	-4.44036e-06	7	2.16466e-09	1.3328e-09	424319	380140	6.7	4.44036e-06	0.000000000000000E+000	4.44036e-06	0.0000000E+000	3	7.43604e-07
2	0	0	0	0	0	0	23.9096	-0.300004	-0.300121	-0.00246817	3.50801e-05	3.50801e-05	41	-4.71394e-06	7	2.16466e-09	1.41491e-09	424319	403561	7.1	4.71394e-06	0.000000000000000E+000	4.71394e-06	0.0000000E+000	3	7.4075e-07
2	0	0	0	0	0	0	24.3096	-0.300004	-0.300121	-0.00246209	3.41007e-05	3.41007e-05	41	-4.986e-06	7	2.16466e-09	1.49657e-09	424319	426852	7.5	4.986e-06	0.000000000000000E+000	4.986e-06	0.0000000E+000	3	7.38926e-07
2	0	0	0	0	0	0	24.7096	-0.300004	-0.300198	-0.00244345	3.31155e-05	3.31155e-05	41	-5.25965e-06	7	2.16466e-09	1.57871e-09	424319	550558	7.9	5.25965e-06	0.000000000000000E+000	5.25965e-06	0.0000000E+000	3	7.33518e-07
2	0	0	0	0	0	0	25.1096	-0.300004	-0.300175	-0.00244386	3.2138e-05	3.2138e-05	41	-5.53119e-06	7	2.16466e-09	1.66022e-09	424319	1.73544e+06	8.3	5.53119e-06	0.000000000000000E+000	5.53119e-06	0.0000000E+000	3	7.33586e-07
2	0	0	0	0	0	0	25.5096	-0.300004	-0.300179	-0.00243262	3.11631e-05	3.11631e-05	41	-5.802e-06	7	2.16466e-09	1.74151e-09	424319	1.3662e+06	8.7	5.802e-06	0.000000000000000E+000	5.802e-06	0.0000000E+000	3	7.30222e-07
2	0	0	0	0	0	0	25.9096	-0.300004	-0.300133	-0.00241623	3.01943e-05	3.01943e-05	41	-6.07112e-06	7	2.16466e-09	1.82229e-09	424319	714782	9.1	6.07112e-06	0.000000000000000E+000	6.07112e-06	0.0000000E+000	3	7.25191e-07
2	0	0	0	0	0	0	26.3096	-0.300004	-0.300095	-0.00235804	2.92443e-05	2.92443e-05	41	-6.33501e-06	7	2.16466e-09	1.90149e-09	424319	331418	9.5	6.33501e-06	0.000000000000000E+000	6.33501e-06	0.0000000E+000	3	7.07635e-07
2	0	0	0	0	0	0	26.7096	-0.300004	-0.300164	-0.00217383	2.8338e-05	2.8338e-05	41	-6.58673e-06	7	2.16466e-09	1.97705e-09	424319	0.000000000000000E+000	9.9	6.58673e-06	0.000000000000000E+000	6.58673e-06	0.0000000E+000	3	6.52504e-07
2	0	0	0	0	0	0	27.1096	-0.300004	-0.30016	-0.00151785	2.76062e-05	2.76062e-05	41	-6.79003e-06	7	2.16466e-09	2.03806e-09	424319	6.40787e+06	10.3	6.79003e-06	0.000000000000000E+000	6.79003e-06	0.0000000E+000	3	4.55598e-07
2	1	0	0	0	0	0	27.5096	-0.300004	-0.300194	0.000492589	2.74447e-05	2.74447e-05	41	1.3683e-08	8	4.10766e-12	0.000000000000000E+000	0.000000000000000E+000	0.000000000000000E+000	0.000000000000000E+000	0.000000000000000E+000	1.3683e-08	1.3683e-08	0.0000000E+000	4	-1.47872e-07
2	1	0	0	0	0	0	27.9096	-0.300004	-0.30019	0.00507508	2.86832e-05	2.86832e-05	41	3.57728e-07	8	1.07378e-10	0.000000000000000E+000	337594	0.000000000000000E+000	0.4	0.000000000000000E+000	3.57728e-07	3.57728e-07	0.0000000E+000	4	-1.52349e-06
2	1	0	0	0	0	0	28.3096	-0.300004	-0.300114	0.0142196	3.28245e-05	3.28245e-05	41	1.50807e-06	8	4.5265e-10	0.000000000000000E+000	67645.1	0.000000000000000E+000	0.8	0.000000000000000E+000	1.50807e-06	1.50807e-06	0.0000000E+000	4	-4.2675e-06
2	1	0	0	0	0	0	28.7096	-0.300004	-0.300179	0.0223148	4.09678e-05	4.09678e-05	41	3.7701e-06	8	1.13164e-09	0.000000000000000E+000	887744	0.000000000000000E+000	1.2	0.000000000000000E+000	3.7701e-06	3.7701e-06	0.0000000E+000	4	-6.69842e-06
2	1	0	0	0	0	0	29.1096	-0.300004	-0.300164	0.00534277	4.60226e-05	4.60226e-05	41	5.17422e-06	8	1.55308e-09	0.000000000000000E+000	609186	0.000000000000000E+000	1.6	0.000000000000000E+000	5.17422e-06	5.17422e-06	0.0000000E+000	4	-1.6037e-06
2	0	0	0	0	0	0	29.5096	-0.300004	-0.300164	-0.00113667	4.61421e-05	4.61421e-05	41	-4.61886e-08	9	1.57691e-09	1.38639e-11	224881	5438.01	0.1	4.61886e-08	0.000000000000000E+000	4.61886e-08	0.0000000E+000	4	3.41187e-07
2	0	0	0	0	0	0	29.9096	-0.300004	-0.300148	-0.00189013	4.54588e-05	4.54588e-05	41	-2.36004e-07	9	1.57691e-09	7.08377e-11	224881	55571.9	0.5	2.36004e-07	0.000000000000000E+000	2.36004e-07	0.0000000E+000	4	5.6732e-07
2	0	0	0	0	0	0	30.3096	-0.300004	-0.300106	-0.00200589	4.46663e-05	4.46663e-05	41	-4.56148e-07	9	1.57691e-09	1.36906e-10	224881	61359.5	0.9	4.56148e-07	0.000000000000000E+000	4.56148e-07	0.0000000E+000	4	6.01979e-07
2	0	0	0	0	0	0	30.7096	-0.300004	-0.300152	-0.00200014	4.3862e-05	4.3862e-05	41	-6.79557e-07	9	1.57691e-09	2.03956e-10	224881	128062	1.3	6.79557e-07	0.000000000000000E+000	6.79557e-07	0.0000000E+000	4	6.00347e-07
2	0	0	0	0	0	0	31.1096	-0.300004	-0.300156	-0.0018847	4.30869e-05	4.30869e-05	41	-8.94848e-07	9	1.57691e-09	2.68571e-10	224881	140382	1.7	8.94848e-07	0.000000000000000E+000	8.94848e-07	0.0000000E+000	4	5.65704e-07
2	0	0	0	0	0	0	31.5096	-0.300004	-0.300114	-0.00152515	4.24189e-05	4.24189e-05	41	-1.08041e-06	9	1.57691e-09	3.24262e-10	224881	203602	2.1	1.08041e-06	0.000000000000000E+000	1.08041e-06	0.0000000E+000	4	4.57719e-07
2	0	0	0	0	0	0	31.9096	-0.300004	-0.300129	-0.00227045	4.15403e-05	4.15403e-05	41	-1.32446e-06	9	1.57691e-09	3.97511e-10	224881	1.24992e+06	2.5	1.32446e-06	0.000000000000000E+000	1.32446e-06	0.0000000E+000	4	6.81428e-07
2	0	0	0	0	0	0	32.3096	-0.300004	-0.300164	-0.0023027	4.06232e-05	4.06232e-05	41	-1.57922e-06	9	1.57691e-09	4.73981e-10	224881	185929	2.9	1.57922e-06	0.000000000000000E+000	1.57922e-06	0.0000000E+000	4	6.91186e-07
2	0	0	0	0	0	0	32.7096	-0.300004	-0.300152	-0.00228268	3.97029e-05	3.97029e-05	41	-1.83485e-06	9	1.57691e-09	5.50709e-10	224881	345776	3.3	1.83485e-06	0.000000000000000E+000	1.83485e-06	0.0000000E+000	4	6.85152e-07
2	0	0	0	0	0	0	33.1096	-0.300004	-0.300179	-0.00229904	3.87924e-05	3.87924e-05	41	-2.08778e-06	9	1.57691e-09	6.2662e-10	224881	163870	3.7	2.08778e-06	0.000000000000000E+000	2.08778e-06	0.0000000E+000	4	6.90122e-07
2	0	0	0	0	0	0	33.5096	-0.300004	-0.300198	-0.00230312	3.78746e-05	3.78746e-05	41	-2.34271e-06	9	1.57691e-09	7.03139e-10	224881	129812	4.1	2.34271e-06	0.000000000000000E+000	2.34271e-06	0.0000000E+000	4	6.91392e-07
2	0	0	0	0	0	0	33.9096	-0.300004	-0.300152	-0.00230257	3.6953e-05	3.6953e-05	41	-2.59872e-06	9	1.57691e-09	7.7998e-10	224881	489727	4.5	2.59872e-06	0.000000000000000E+000	2.59872e-06	0.0000000E+000	4	6.91121e-07
2	0	0	0	0	0	0	34.3096	-0.300004	-0.300194	-0.00229265	3.60324e-05	3.60324e-05	41	-2.85444e-06	9	1.57691e-09	8.56737e-10	224881	168033	4.9	2.85444e-06	0.000000000000000E+000	2.85444e-06	0.0000000E+000	4	6.8824e-07
2	0	0	0	0	0	0	34.7096	-0.300004	-0.300175	-0.00225586	3.51241e-05	3.51241e-05	41	-3.10674e-06	9	1.57691e-09	9.32468e-10	224881	265969	5.3	3.10674e-06	0.000000000000000E+000	3.10674e-06	0.0000000E+000	4	6.77154e-07
2	0	0	0	0	0	0	35.1096	-0.300004	-0.300183	-0.00128905	3.43911e-05	3.43911e-05	41	-3.31037e-06	9	1.57691e-09	9.9359e-10	224881	239879	5.7	3.31037e-06	0.000000000000000E+000	3.31037e-06	0.0000000E+000	4	3.86952e-07
2	1	0	0	0	0	0	35.5096	-0.300004	-0.300156	0.00169586	3.46277e-05	3.46277e-05	41	8.17817e-08	10	2.45469e-11	0.000000000000000E+000	11001	0.000000000000000E+000	0.2	0.000000000000000E+000	8.17817e-08	8.17817e-08	0.0000000E+000	5	-5.09022e-07
2	1	0	0	0	0	0	35.9096	-0.300004	-0.30016	0.00421472	3.59346e-05	3.59346e-05	41	4.44818e-07	10	1.33509e-10	0.000000000000000E+000	52370.6	0.000000000000000E+000	0.6	0.000000000000000E+000	4.44818e-07	4.44818e-07	0.0000000E+000	5	-1.26509e-06
2	1	0	0	0	0	0	36.3096	-0.300004	-0.300156	0.00859214	3.86335e-05	3.86335e-05	41	1.1945e-06	10	3.58515e-10	0.000000000000000E+000	160859	0.000000000000000E+000	1	0.000000000000000E+000	1.1945e-06	1.1945e-06	0.0000000E+000	5	-2.57898e-06
2	1	0	0	0	0	0	36.7096	-0.300004	-0.300121	0.0124841	4.32177e-05	4.32177e-05	41	2.4679e-06	10	7.40705e-10	0.000000000000000E+000	1.15997e+06	0.000000000000000E+000	1.4	0.000000000000000E+000	2.4679e-06	2.4679e-06	0.0000000E+000	5	-3.74674e-06
2	1	0	0	0	0	0	37.1096	-0.300004	-0.300179	0.0080153	4.73256e-05	4.73256e-05	41	3.60898e-06	10	1.08319e-09	0.000000000000000E+000	261518	0.000000000000000E+000	1.8	0.000000000000000E+000	3.60898e-06	3.60898e-06	0.0000000E+000	5	-2.40602e-06
2	1	0	0	0	0	0	37.5096	-0.300004	-0.300137	0.00187253	4.89087e-05	4.89087e-05	41	4.04873e-06	10	1.21519e-09	0.000000000000000E+000	1.91043e+06	0.000000000000000E+000	2.2	0.000000000000000E+000	4.04873e-06	4.04873e-06	0.0000000E+000	5	-5.62015e-07
2	0	0	0	0	0	0	37.9096	-0.300004	-0.300106	-0.000916515	4.88701e-05	4.88701e-05	41	-3.87695e-08	11	1.22362e-09	1.16357e-11	0.000000000000000E+000	2807.67	0.1	3.87695e-08	0.000000000000000E+000	3.87695e-08	0.0000000E+000	5	2.75052e-07
2	0	0	0	0	0	0	38.3096	-0.300004	-0.30016	-0.00175307	4.82604e-05	4.82604e-05	41	-2.08133e-07	11	1.22362e-09	6.2472e-11	0.000000000000000E+000	196419	0.5	2.08133e-07	0.000000000000000E+000	2.08133e-07	0.0000000E+000	5	5.26201e-07
2	0	0	0	0	0	0	38.7096	-0.300004	-0.300148	-0.00200068	4.7487e-05	4.7487e-05	41	-4.22965e-07	11	1.22362e-09	1.26953e-10	0.000000000000000E+000	198803	0.9	4.22965e-07	0.000000000000000E+000	4.22965e-07	0.0000000E+000	5	6.00502e-07
2	0	0	0	0	0	0	39.1096	-0.300004	-0.300106	-0.00211983	4.66556e-05	4.66556e-05	41	-6.53914e-07	11	1.22362e-09	1.96271e-10	0.000000000000000E+000	47356.2	1.3	6.53914e-07	0.000000000000000E+000	6.53914e-07	0.0000000E+000	5	6.36174e-07
2	0	0	0	0	0	0	39.5096	-0.300004	-0.30016	-0.00216681	4.57984e-05	4.57984e-05	41	-8.92016e-07	11	1.22362e-09	2.67735e-10	0.000000000000000E+000	841812	1.7	8.92016e-07	0.000000000000000E+000	8.92016e-07	0.0000000E+000	5	6.50388e-07
2	0	0	0	0	0	0	39.9096	-0.300004	-0.300198	-0.00220776	4.49237e-05	4.49237e-05	41	-1.135e-06	11	1.22362e-09	3.40672e-10	0.000000000000000E+000	97236.5	2.1	1.135e-06	0.000000000000000E+000	1.135e-06	0.0000000E+000	5	6.62764e-07
2	0	0	0	0	0	0	40.3096	-0.300004	-0.300175	-0.0022348	4.40344e-05	4.40344e-05	41	-1.38203e-06	11	1.22362e-09	4.14816e-10	0.000000000000000E+000	260443	2.5	1.38203e-06	0.000000000000000E+000	1.38203e-06	0.0000000E+000	5	6.7083e-07
2	0	0	0	0	0	0	40.7096	-0.300004	-0.300133	-0.00223414	4.31422e-05	4.31422e-05	41	-1.62986e-06	11	1.22362e-09	4.89206e-10	0.000000000000000E+000	255690	2.9	1.62986e-06	0.000000000000000E+000	1.62986e-06	0.0000000E+000	5	6.7054e-07
2	0	0	0	0	0	0	41.1096	-0.300004	-0.300194	-0.00221549	4.2252e-05	4.2252e-05	41	-1.87715e-06	11	1.22362e-09	5.63433e-10	0.000000000000000E+000	176874	3.3	1.87715e-06	0.000000000000000E+000	1.87715e-06	0.0000000E+000	5	6.65078e-07
2	0	0	0	0	0	0	41.5096	-0.300004	-0.300175	-0.00228552	4.1349e-05	4.1349e-05	41	-2.12796e-06	11	1.22362e-09	6.38717e-10	0.000000000000000E+000	401013	3.7	2.12796e-06	0.000000000000000E+000	2.12796e-06	0.0000000E+000	5	6.86057e-07
2	0	0	0	0	0	0	41.9096	-0.300004	-0.300125	-0.00229575	4.04331e-05	4.04331e-05	41	-2.38238e-06	11	1.22362e-09	7.15079e-10	0.000000000000000E+000	280217	4.1	2.38238e-06	0.000000000000000E+000	2.38238e-06	0.0000000E+000	5	6.89012e-07
2	0	0	0	0	0	0	42.3096	-0.300004	-0.300167	-0.00228021	3.95238e-05	3.95238e-05	41	-2.63498e-06	11	1.22362e-09	7.90895e-10	0.000000000000000E+000	828894	4.5	2.63498e-06	0.000000000000000E+000	2.63498e-06	0.0000000E+000	5	6.84445e-07
2	0	0	0	0	0	0	42.7096	-0.300004	-0.300148	-0.00226732	3.86126e-05	3.86126e-05	41	-2.88808e-06	11	1.22362e-09	8.66858e-10	0.000000000000000E+000	1.35746e+06	4.9	2.88808e-06	0.000000000000000E+000	2.88808e-06	0.0000000E+000	5	6.80531e-07
2	0	0	0	0	0	0	43.1096	-0.300004	-0.300183	-0.00226979	3.77035e-05	3.77035e-05	41	-3.14062e-06	11	1.22362e-09	9.42661e-10	0.000000000000000E+000	422937	5.3	3.14062e-06	0.000000000000000E+000	3.14062e-06	0.0000000E+000	5	6.81351e-07
2	0	0	0	0	0	0	43.5096	-0.300004	-0.300167	-0.0022948	3.67903e-05	3.67903e-05	41	-3.39427e-06	11	1.22362e-09	1.01879e-09	0.000000000000000E+000	1.06775e+06	5.7	3.39427e-06	0.000000000000000E+000	3.39427e-06	0.0000000E+000	5	6.88825e-07
2	0	0	0	0	0	0	43.9096	-0.300004	-0.300152	-0.00226474	3.58807e-05	3.58807e-05	41	-3.64696e-06	11	1.22362e-09	1.09464e-09	0.000000000000000E+000	3.41502e+06	6.1	3.64696e-06	0.000000000000000E+000	3.64696e-06	0.0000000E+000	5	6.79767e-07
2	0	0	0	0	0	0	44.3096	-0.300004	-0.300164	-0.00227001	3.49713e-05	3.49713e-05	41	-3.89956e-06	11	1.22362e-09	1.17046e-09	0.000000000000000E+000	1.84005e+06	6.5	3.89956e-06	0.000000000000000E+000	3.89956e-06	0.0000000E+000	5	6.81374e-07
2	0	0	0	0	0	0	44.7096	-0.300004	-0.300186	-0.00227246	3.40654e-05	3.40654e-05	41	-4.15119e-06	11	1.22362e-09	1.24599e-09	0.000000000000000E+000	488740	6.9	4.15119e-06	0.000000000000000E+000	4.15119e-06	0.0000000E+000	5	6.82162e-07
2	0	0	0	0	0	0	45.1096	-0.300004	-0.300129	-0.00224501	3.31596e-05	3.31596e-05	41	-4.40282e-06	11	1.22362e-09	1.32152e-09	0.000000000000000E+000	592252	7.3	4.40282e-06	0.000000000000000E+000	4.40282e-06	0.0000000E+000	5	6.73793e-07
2	0	0	0	0	0	0	45.5096	-0.300004	-0.300148	-0.00226744	3.22551e-05	3.22551e-05	41	-4.65405e-06	11	1.22362e-09	1.39692e-09	0.000000000000000E+000	2.18751e+06	7.7	4.65405e-06	0.000000000000000E+000	4.65405e-06	0.0000000E+000	5	6.80567e-07
2	0	0	0	0	0	0	45.9096	-0.300004	-0.300198	-0.00225679	3.13491e-05	3.13491e-05	41	-4.90573e-06	11	1.22362e-09	1.47247e-09	0.000000000000000E+000	419980	8.1	4.90573e-06	0.000000000000000E+000	4.90573e-06	0.0000000E+000	5	6.77484e-07
2	0	0	0	0	0	0	46.3096	-0.300004	-0.300156	-0.00225123	3.04494e-05	3.04494e-05	41	-5.15563e-06	11	1.22362e-09	1.54748e-09	0.000000000000000E+000	0.000000000000000E+000	8.5	5.15563e-06	0.000000000000000E+000	5.15563e-06	0.0000000E+000	5	6.75719e-07
2	0	0	0	0	0	0	46.7096	-0.300004	-0.30011	-0.00222133	2.95588e-05	2.95588e-05	41	-5.40302e-06	11	1.22362e-09	1.62172e-09	0.000000000000000E+000	423807	8.9	5.40302e-06	0.000000000000000E+000	5.40302e-06	0.0000000E+000	5	6.66642e-07
2	0	0	0	0	0	0	47.1096	-0.300004	-0.300129	-0.00221791	2.8666e-05	2.8666e-05	41	-5.65102e-06	11	1.22362e-09	1.69616e-09	0.000000000000000E+000	760157	9.3	5.65102e-06	0.000000000000000E+000	5.65102e-06	0.0000000E+000	5	6.65658e-07
2	0	0	0	0	0	0	47.5096	-0.300004	-0.300144	-0.00209301	2.7807e-05	2.7807e-05	41	-5.88965e-06	11	1.22362e-09	1.76778e-09	0.000000000000000E+000	1.84791e+06	9.7	5.88965e-06	0.000000000000000E+000	5.88965e-06	0.0000000E+000	5	6.28205e-07
2	0	0	0	0	0	0	47.9096	-0.300004	-0.300164	-0.00174642	2.70472e-05	2.70472e-05	41	-6.10068e-06	11	1.22362e-09	1.83112e-09	0.000000000000000E+000	2.87866e+06	10.1	6.10068e-06	0.000000000000000E+000	6.10068e-06	0.0000000E+000	5	5.2421e-07
2	0	0	0	0	0	0	48.3096	-0.300004	-0.300167	-0.000807901	2.65579e-05	2.65579e-05	41	-6.23662e-06	11	1.22362e-09	1.87193e-09	0.000000000000000E+000	1.96187e+06	10.5	6.23662e-06	0.000000000000000E+000	6.23662e-06	0.0000000E+000	5	2.42505e-07
2	1	0	0	0	0	0	48.7096	-0.300004	-0.30019	0.00111148	2.66772e-05	2.66772e-05	41	4.54074e-08	12	1.36304e-11	0.000000000000000E+000	5346.03	0.000000000000000E+000	0.2	0.000000000000000E+000	4.54074e-08	4.54074e-08	0.0000000E+000	6	-3.33654e-07
2	1	0	0	0	0	0	49.1096	-0.300004	-0.300125	0.00469632	2.79457e-05	2.79457e-05	41	3.97755e-07	12	1.19385e-10	0.000000000000000E+000	41599.3	0.000000000000000E+000	0.6	0.000000000000000E+000	3.97755e-07	3.97755e-07	0.0000000E+000	6	-1.40948e-06
2	1	0	0	0	0	0	49.5096	-0.300004	-0.300148	0.0101301	3.12018e-05	3.12018e-05	41	1.30223e-06	12	3.90859e-10	0.000000000000000E+000	408581	0.000000000000000E+000	1	0.000000000000000E+000	1.30223e-06	1.30223e-06	0.0000000E+000	6	-3.04052e-06
2	1	0	0	0	0	0	49.9096	-0.300004	-0.300133	0.00499763	3.45069e-05	3.45069e-05	41	2.22032e-06	12	6.66408e-10	0.000000000000000E+000	298671	0.000000000000000E+000	1.4	0.000000000000000E+000	2.22032e-06	2.22032e-06	0.0000000E+000	6	-1.49995e-06
2	0	0	0	0	0	0	50.3096	-0.300004	-0.300125	-0.00107662	3.46985e-05	3.46985e-05	41	-4.03479e-08	13	6.94495e-10	1.21095e-11	167572	4750.36	0.1	4.03479e-08	0.000000000000000E+000	4.03479e-08	0.0000000E+000	6	3.2312e-07
2	0	0	0	0	0	0	50.7096	-0.300004	-0.300144	-0.00190923	3.40038e-05	3.40038e-05	41	-2.33321e-07	13	6.94495e-10	7.00304e-11	167572	73396.4	0.5	2.33321e-07	0.000000000000000E+000	2.33321e-07	0.0000000E+000	6	5.73046e-07
2	0	0	0	0	0	0	51.1096	-0.300004	-0.300144	-0.00202259	3.3206e-05	3.3206e-05	41	-4.5494e-07	13	6.94495e-10	1.36551e-10	167572	143112	0.9	4.5494e-07	0.000000000000000E+000	4.5494e-07	0.0000000E+000	6	6.07069e-07
2	0	0	0	0	0	0	51.5096	-0.300004	-0.300141	-0.00201984	3.23954e-05	3.23954e-05	41	-6.801e-07	13	6.94495e-10	2.04131e-10	167572	160143	1.3	6.801e-07	0.000000000000000E+000	6.801e-07	0.0000000E+000	6	6.06236e-07
2	0	0	0	0	0	0	51.9096	-0.300004	-0.300156	-0.0019708	3.15987e-05	3.15987e-05	41	-9.01402e-07	13	6.94495e-10	2.70556e-10	167572	0.000000000000000E+000	1.7	9.01402e-07	0.000000000000000E+000	9.01402e-07	0.0000000E+000	6	5.91548e-07
2	0	0	0	0	0	0	52.3096	-0.300004	-0.300129	-0.00180601	3.0849e-05	3.0849e-05	41	-1.10966e-06	13	6.94495e-10	3.33058e-10	167572	149434	2.1	1.10966e-06	0.000000000000000E+000	1.10966e-06	0.0000000E+000	6	5.42035e-07
2	0	0	0	0	0	0	52.7096	-0.300004	-0.30011	-0.00222036	3.0077e-05	3.0077e-05	41	-1.32409e-06	13	6.94495e-10	3.97417e-10	167572	103928	2.5	1.32409e-06	0.000000000000000E+000	1.32409e-06	0.0000000E+000	6	6.66354e-07
2	0	0	0	0	0	0	53.1096	-0.300004	-0.300137	-0.00222932	2.91786e-05	2.91786e-05	41	-1.57365e-06	13	6.94495e-10	4.72317e-10	167572	296553	2.9	1.57365e-06	0.000000000000000E+000	1.57365e-06	0.0000000E+000	6	6.69101e-07
2	0	0	0	0	0	0	53.5096	-0.300004	-0.30016	-0.00220818	2.82989e-05	2.82989e-05	41	-1.81802e-06	13	6.94495e-10	5.4566e-10	167572	1.7024e+06	3.3	1.81802e-06	0.000000000000000E+000	1.81802e-06	0.0000000E+000	6	6.62806e-07
2	0	0	0	0	0	0	53.9096	-0.300004	-0.300121	-0.00217661	2.74226e-05	2.74226e-05	41	-2.06145e-06	13	6.94495e-10	6.18716e-10	167572	215784	3.7	2.06145e-06	0.000000000000000E+000	2.06145e-06	0.0000000E+000	6	6.53247e-07
2	0	0	0	0	0	0	54.3096	-0.300004	-0.300083	-0.00213001	2.65625e-05	2.65625e-05	41	-2.30036e-06	13	6.94495e-10	6.90412e-10	167572	114023	4.1	2.30036e-06	0.000000000000000E+000	2.30036e-06	0.0000000E+000	6	6.3918e-07
2	0	0	0	0	0	0	54.7096	-0.300004	-0.30011	-0.00219221	2.56878e-05	2.56878e-05	41	-2.54333e-06	13	6.94495e-10	7.63335e-10	167572	199626	4.5	2.54333e-06	0.000000000000000E+000	2.54333e-06	0.0000000E+000	6	6.57903e-07
2	0	0	0	0	0	0	55.1096	-0.300004	-0.300118	-0.00213625	2.48246e-05	2.48246e-05	41	-2.7831e-06	13	6.94495e-10	8.35294e-10	167572	262236	4.9	2.7831e-06	0.000000000000000E+000	2.7831e-06	0.0000000E+000	6	6.41127e-07
2	0	0	0	0	0	0	55.5096	-0.300004	-0.300125	-0.00216463	2.39596e-05	2.39596e-05	41	-3.02339e-06	13	6.94495e-10	9.07415e-10	167572	355958	5.3	3.02339e-06	0.000000000000000E+000	3.02339e-06	0.0000000E+000	6	6.49661e-07
2	0	0	0	0	0	0	55.9096	-0.300004	-0.300114	-0.0019291	2.31328e-05	2.31328e-05	41	-3.25305e-06	13	6.94495e-10	9.76345e-10	167572	278494	5.7	3.25305e-06	0.000000000000000E+000	3.25305e-06	0.0000000E+000	6	5.78951e-07
2	1	0	0	0	0	0	56.3096	-0.300004	-0.300079	0.000105967	2.28145e-05	2.28145e-05	41	2.94354e-09	14	8.83353e-13	0.000000000000000E+000	0.000000000000000E+000	0.000000000000000E+000	0.000000000000000E+000	0.000000000000000E+000	2.94354e-09	2.94354e-09	0.0000000E+000	7	-3.17986e-08
2	1	0	0	0	0	0	56.7096	-0.300004	-0.300076	0.00215588	2.33949e-05	2.33949e-05	41	1.64176e-07	14	4.92682e-11	0.000000000000000E+000	153735	0.000000000000000E+000	0.4	0.000000000000000E+000	1.64176e-07	1.64176e-07	0.0000000E+000	7	-6.46928e-07
2	1	0	0	0	0	0	57.1096	-0.300004	-0.300099	0.0047696	2.48513e-05	2.48513e-05	41	5.68725e-07	14	1.70679e-10	0.000000000000000E+000	107176	0.000000000000000E+000	0.8	0.000000000000000E+000	5.68725e-07	5.68725e-07	0.0000000E+000	7	-1.43135e-06
2	1	0	0	0	0	0	57.5096	-0.300004	-0.300118	0.00895406	2.78037e-05	2.78037e-05	41	1.38886e-06	14	4.16826e-10	0.000000000000000E+000	130762	0.000000000000000E+000	1.2	0.000000000000000E+000	1.38886e-06	1.38886e-06	0.0000000E+000	7	-2.68727e-06
2	1	0	0	0	0	0	57.9096	-0.300004	-0.300129	0.00965763	3.17872e-05	3.17872e-05	41	2.49538e-06	14	7.48921e-10	0.000000000000000E+000	180714	0.000000000000000E+000	1.6	0.000000000000000E+000	2.49538e-06	2.49538e-06	0.0000000E+000	7	-2.89854e-06
2	1	0	0	0	0	0	58.3096	-0.300004	-0.300133	0.0044606	3.44303e-05	3.44303e-05	41	3.22957e-06	14	9.6927e-10	0.000000000000000E+000	217216	0.000000000000000E+000	2	0.000000000000000E+000	3.22957e-06	3.22957e-06	0.0000000E+000	7	-1.33877e-06
2	1	0	0	0	0	0	58.7096	-0.300004	-0.300068	0.00026885	3.5069e-05	3.5069e-05	41	3.40699e-06	14	1.02252e-09	0.000000000000000E+000	1.06896e+06	0.000000000000000E+000	2.4	0.000000000000000E+000	3.40699e-06	3.40699e-06	0.0000000E+000	7	-8.06734e-08
2	0	0	0	0	0	0	59.1096	-0.300004	-0.300152	-0.00129801	3.47263e-05	3.47263e-05	41	-9.52067e-08	15	1.02252e-09	2.85756e-11	1.06896e+06	17913.7	0.3	9.52067e-08	0.000000000000000E+000	9.52067e-08	0.0000000E+000	7	3.896e-07
2	0	0	0	0	0	0	59.5096	-0.300004	-0.300141	-0.00177837	3.4072e-05	3.4072e-05	41	-2.76959e-07	15	1.02252e-09	8.31235e-11	1.06896e+06	129673	0.7	2.76959e-07	0.000000000000000E+000	2.76959e-07	0.0000000E+000	7	5.3376e-07
2	0	0	0	0	0	0	59.9096	-0.300004	-0.300144	-0.001944	3.33143e-05	3.33143e-05	41	-4.87428e-07	15	1.02252e-09	1.46292e-10	1.06896e+06	152537	1.1	4.87428e-07	0.000000000000000E+000	4.87428e-07	0.0000000E+000	7	5.83481e-07
2	0	0	0	0	0	0	60.3096	-0.300004	-0.300144	-0.00201276	3.25174e-05	3.25174e-05	41	-7.08776e-07	15	1.02252e-09	2.12721e-10	1.06896e+06	221806	1.5	7.08776e-07	0.000000000000000E+000	7.08776e-07	0.0000000E+000	7	6.04118e-07
2	0	0	0	0	0	0	60.7096	-0.300004	-0.30016	-0.00208324	3.17005e-05	3.17005e-05	41	-9.35684e-07	15	1.02252e-09	2.80823e-10	1.06896e+06	125725	1.9	9.35684e-07	0.000000000000000E+000	9.35684e-07	0.0000000E+000	7	6.25305e-07
2	0	0	0	0	0	0	61.1096	-0.300004	-0.300087	-0.0021031	3.08606e-05	3.08606e-05	41	-1.16901e-06	15	1.02252e-09	3.50848e-10	1.06896e+06	91814.9	2.3	1.16901e-06	0.000000000000000E+000	1.16901e-06	0.0000000E+000	7	6.31112e-07
2	0	0	0	0	0	0	61.5096	-0.300004	-0.300102	-0.00210044	3.00157e-05	3.00157e-05	41	-1.40369e-06	15	1.02252e-09	4.21285e-10	1.06896e+06	165424	2.7	1.40369e-06	0.000000000000000E+000	1.40369e-06	0.0000000E+000	7	6.30347e-07
2	0	0	0	0	0	0	61.9096	-0.300004	-0.300095	-0.00214178	2.91672e-05	2.91672e-05	41	-1.63938e-06	15	1.02252e-09	4.9202e-10	1.06896e+06	154470	3.1	1.63938e-06	0.000000000000000E+000	1.63938e-06	0.0000000E+000	7	6.42736e-07
2	0	0	0	0	0	0	62.3096	-0.300004	-0.300152	-0.0021549	2.83072e-05	2.83072e-05	41	-1.87828e-06	15	1.02252e-09	5.63724e-10	1.06896e+06	353409	3.5	1.87828e-06	0.000000000000000E+000	1.87828e-06	0.0000000E+000	7	6.46798e-07
2	0	0	0	0	0	0	62.7096	-0.300004	-0.300121	-0.00217797	2.7439e-05	2.7439e-05	41	-2.11945e-06	15	1.02252e-09	6.36106e-10	1.06896e+06	666721	3.9	2.11945e-06	0.000000000000000E+000	2.11945e-06	0.0000000E+000	7	6.53655e-07
2	0	0	0	0	0	0	63.1096	-0.300004	-0.300167	-0.00219048	2.65646e-05	2.65646e-05	41	-2.36234e-06	15	1.02252e-09	7.09007e-10	1.06896e+06	247066	4.3	2.36234e-06	0.000000000000000E+000	2.36234e-06	0.0000000E+000	7	6.57512e-07
2	0	0	0	0	0	0	63.5096	-0.300004	-0.300099	-0.00221232	2.56879e-05	2.56879e-05	41	-2.60587e-06	15	1.02252e-09	7.82096e-10	1.06896e+06	272772	4.7	2.60587e-06	0.000000000000000E+000	2.60587e-06	0.0000000E+000	7	6.63915e-07
2	0	0	0	0	0	0	63.9096	-0.300004	-0.300076	-0.00217736	2.48131e-05	2.48131e-05	41	-2.84888e-06	15	1.02252e-09	8.55025e-10	1.06896e+06	178863	5.1	2.84888e-06	0.000000000000000E+000	2.84888e-06	0.0000000E+000	7	6.53372e-07
2	0	0	0	0	0	0	64.3096	-0.300004	-0.300156	-0.00220253	2.39362e-05	2.39362e-05	41	-3.09244e-06	15	1.02252e-09	9.28131e-10	1.06896e+06	484506	5.5	3.09244e-06	0.000000000000000E+000	3.09244e-06	0.0000000E+000	7	6.61103e-07
2	0	0	0	0	0	0	64.7096	-0.300004	-0.300121	-0.00219508	2.3061e-05	2.3061e-05	41	-3.33555e-06	15	1.02252e-09	1.0011e-09	1.06896e+06	1.04927e+06	5.9	3.33555e-06	0.000000000000000E+000	3.33555e-06	0.0000000E+000	7	6.58789e-07
2	0	0	0	0	0	0	65.1096	-0.300004	-0.300118	-0.00218155	2.21867e-05	2.21867e-05	41	-3.57841e-06	15	1.02252e-09	1.07399e-09	1.06896e+06	844254	6.3	3.57841e-06	0.000000000000000E+000	3.57841e-06	0.0000000E+000	7	6.54722e-07
2	0	0	0	0	0	0	65.5096	-0.300004	-0.30011	-0.00217989	2.1315e-05	2.1315e-05	41	-3.82055e-06	15	1.02252e-09	1.14666e-09	1.06896e+06	600139	6.7	3.82055e-06	0.000000000000000E+000	3.82055e-06	0.0000000E+000	7	6.54207e-07
2	0	0	0	0	0	0	65.9096	-0.300004	-0.300137	-0.00218989	2.04411e-05	2.04411e-05	41	-4.06332e-06	15	1.02252e-09	1.21952e-09	1.06896e+06	3.8049e+06	7.1	4.06332e-06	0.000000000000000E+000	4.06332e-06	0.0000000E+000	7	6.57268e-07
2	0	0	0	0	0	0	66.3096	-0.300004	-0.300148	-0.00219262	1.95653e-05	1.95653e-05	41	-4.30658e-06	15	1.02252e-09	1.29253e-09	1.06896e+06	1.0121e+06	7.5	4.30658e-06	0.000000000000000E+000	4.30658e-06	0.0000000E+000	7	6.5811e-07
2	0	0	0	0	0	0	66.7096	-0.300004	-0.300095	-0.00217956	1.86906e-05	1.86906e-05	41	-4.54955e-06	15	1.02252e-09	1.36545e-09	1.06896e+06	428680	7.9	4.54955e-06	0.000000000000000E+000	4.54955e-06	0.0000000E+000	7	6.54074e-07
2	0	0	0	0	0	0	67.1096	-0.300004	-0.300083	-0.00219668	1.78173e-05	1.78173e-05	41	-4.79214e-06	15	1.02252e-09	1.43826e-09	1.06896e+06	347253	8.3	4.79214e-06	0.000000000000000E+000	4.79214e-06	0.0000000E+000	7	6.59188e-07
2	0	0	0	0	0	0	67.5096	-0.300004	-0.300091	-0.00219584	1.694e-05	1.694e-05	41	-5.03583e-06	15	1.02252e-09	1.51139e-09	1.06896e+06	431424	8.7	5.03583e-06	0.000000000000000E+000	5.03583e-06	0.0000000E+000	7	6.58952e-07
2	0	0	0	0	0	0	67.9096	-0.300004	-0.300076	-0.00218954	1.60604e-05	1.60604e-05	41	-5.28018e-06	15	1.02252e-09	1.58472e-09	1.06896e+06	331509	9.1	5.28018e-06	0.000000000000000E+000	5.28018e-06	0.0000000E+000	7	6.57029e-07
2	0	0	0	0	0	0	68.3096	-0.300004	-0.300129	-0.00217114	1.51864e-05	1.51864e-05	41	-5.52296e-06	15	1.02252e-09	1.65758e-09	1.06896e+06	5.25316e+06	9.5	5.52296e-06	0.000000000000000E+000	5.52296e-06	0.0000000E+000	7	6.51622e-07
2	0	0	0	0	0	0	68.7096	-0.300004	-0.300171	-0.00222176	1.43003e-05	1.43003e-05	41	-5.76909e-06	15	1.02252e-09	1.73146e-09	1.06896e+06	542743	9.9	5.76909e-06	0.000000000000000E+000	5.76909e-06	0.0000000E+000	7	6.66907e-07
2	0	0	0	0	0	0	69.1096	-0.300004	-0.300133	-0.00222911	1.34128e-05	1.34128e-05	41	-6.01562e-06	15	1.02252e-09	1.80545e-09	1.06896e+06	0.000000000000000E+000	10.3	6.01562e-06	0.000000000000000E+000	6.01562e-06	0.0000000E+000	7	6.69029e-07
2	0	0	0	0	0	0	69.5096	-0.300004	-0.300079	-0.00222185	1.2531e-05	1.2531e-05	41	-6.26055e-06	15	1.02252e-09	1.87896e-09	1.06896e+06	421309	10.7	6.26055e-06	0.000000000000000E+000	6.26055e-06	0.0000000E+000	7	6.66731e-07
2	0	0	0	0	0	0	69.9096	-0.300004	-0.300095	-0.00220906	1.16418e-05	1.16418e-05	41	-6.50756e-06	15	1.02252e-09	1.95308e-09	1.06896e+06	613172	11.1	6.50756e-06	0.000000000000000E+000	6.50756e-06	0.0000000E+000	7	6.62928e-07
2	0	0	0	0	0	0	70.3096	-0.300004	-0.300083	-0.00221469	1.07589e-05	1.07589e-05	41	-6.75281e-06	15	1.02252e-09	2.02669e-09	1.06896e+06	489329	11.5	6.75281e-06	0.000000000000000E+000	6.75281e-06	0.0000000E+000	7	6.64591e-07
2	0	0	0	0	0	0	70.7096	-0.300004	-0.300125	-0.00223991	9.87093e-06	9.87093e-06	41	-6.99947e-06	15	1.02252e-09	2.10072e-09	1.06896e+06	3.30276e+06	11.9	6.99947e-06	0.000000000000000E+000	6.99947e-06	0.0000000E+000	7	6.72253e-07
2	0	0	0	0	0	0	71.1096	-0.300004	-0.300102	-0.0021832	8.98596e-06	8.98596e-06	41	-7.24529e-06	15	1.02252e-09	2.1745e-09	1.06896e+06	853855	12.3	7.24529e-06	0.000000000000000E+000	7.24529e-06	0.0000000E+000	7	6.55182e-07
2	0	0	0	0	0	0	71.5096	-0.300004	-0.300133	-0.0022306	8.09191e-06	8.09191e-06	41	-7.49364e-06	15	1.02252e-09	2.24903e-09	1.06896e+06	0.000000000000000E+000	12.7	7.49364e-06	0.000000000000000E+000	7.49364e-06	0.0000000E+000	7	6.69476e-07
2	0	0	0	0	0	0	71.9096	-0.300004	-0.300118	-0.00222741	7.204e-06	7.204e-06	41	-7.74028e-06	15	1.02252e-09	2.32306e-09	1.06896e+06	1.82616e+06	13.1	7.74028e-06	0.000000000000000E+000	7.74028e-06	0.0000000E+000	7	6.68484e-07
2	0	0	0	0	0	0	72.3096	-0.300004	-0.300121	-0.00220447	6.31405e-06	6.31405e-06	41	-7.98749e-06	15	1.02252e-09	2.39724e-09	1.06896e+06	2.51265e+06	13.5	7.98749e-06	0.000000000000000E+000	7.98749e-06	0.0000000E+000	7	6.61608e-07
2	0	0	0	0	0	0	72.7096	-0.300004	-0.300125	-0.00221919	5.42977e-06	5.42977e-06	41	-8.23312e-06	15	1.02252e-09	2.47096e-09	1.06896e+06	3.88487e+06	13.9	8.23312e-06	0.000000000000000E+000	8.23312e-06	0.0000000E+000	7	6.66034e-07
2	0	0	0	0	0	0	73.1096	-0.300004	-0.300144	-0.0022535	4.54171e-06	4.54171e-06	41	-8.4798e-06	15	1.02252e-09	2.545e-09	1.06896e+06	2.65369e+06	14.3	8.4798e-06	0.000000000000000E+000	8.4798e-06	0.0000000E+000	7	6.76376e-07
2	0	0	0	0	0	0	73.5096	-0.300004	-0.300102	-0.00224022	3.63883e-06	3.63883e-06	41	-8.7306e-06	15	1.02252e-09	2.62027e-09	1.06896e+06	1.0289e+06	14.7	8.7306e-06	0.000000000000000E+000	8.7306e-06	0.0000000E+000	7	6.72297e-07
2	0	0	0	0	0	0	73.9096	-0.300004	-0.300137	-0.00222431	2.74601e-06	2.74601e-06	41	-8.97861e-06	15	1.02252e-09	2.6947e-09	1.06896e+06	8.4076e+06	15.1	8.97861e-06	0.000000000000000E+000	8.97861e-06	0.0000000E+000	7	6.67598e-07
2	0	0	0	0	0	0	74.3096	-0.300004	-0.300121	-0.00222391	1.85617e-06	1.85617e-06	41	-9.22579e-06	15	1.02252e-09	2.76889e-09	1.06896e+06	2.90218e+06	15.5	9.22579e-06	0.000000000000000E+000	9.22579e-06	0.0000000E+000	7	6.67444e-07
2	0	0	0	0	0	0	74.7096	-0.300004	-0.300102	-0.00222056	9.66523e-07	9.66523e-07	41	-9.47291e-06	15	1.02252e-09	2.84305e-09	1.06896e+06	1.11638e+06	15.9	9.47291e-06	0.000000000000000E+000	9.47291e-06	0.0000000E+000	7	6.66394e-07
2	0	0	0	0	0	0	75.1096	-0.300004	-0.300049	-0.00224491	6.75101e-08	6.75101e-08	41	-9.72264e-06	15	1.02252e-09	2.918e-09	1.06896e+06	416326	16.3	9.72264e-06	0.000000000000000E+000	9.72264e-06	0.0000000E+000	7	6.73584e-07
2	0	0	0	0	0	0	75.5096	-0.300004	-0.300144	-0.00222958	-8.29187e-07	-8.29187e-07	41	-9.97172e-06	15	1.02252e-09	2.99276e-09	1.06896e+06	3.12058e+06	16.7	9.97172e-06	0.000000000000000E+000	9.97172e-06	0.0000000E+000	7	6.69197e-07
2	0	0	0	0	0	0	75.7792	-0.300004	-0.300129	-0.00221877	-1.42839e-06	-1.42839e-06	41	-1.01382e-05	15	1.02252e-09	3.04271e-09	1.06896e+06	9.64291e+06	16.9696	1.01382e-05	0.000000000000000E+000	1.01382e-05	297.57	7	6.65918e-07