File: Fig 3/Fig 3_RRDE-np-Fe3O4_10mvs_ring.mpt
mode	ox/red	error	control changes	counter inc.	time/s	control/V	Ewe/V	<I>/mA	cycle number	(Q-Qo)/C	I Range	step time/s	P/W
2	1	0	1	0	0.000000000000000E+000	-0.299996	-0.299957	0.278089	1	0.0000000E+000	39	0.000000000000000E+000	-8.34147e-05
2	1	0	1	0	0.355	-0.303545	-0.30354	0.0249462	1	1.62994e-05	39	0.3	-7.57216e-06
2	1	0	1	0	0.755	-0.307544	-0.307565	0.0192244	1	2.47426e-05	39	0.7	-5.91277e-06
2	1	0	0	0	1.1548	-0.311544	-0.311576	0.0167445	1	3.17429e-05	39	1.0998	-5.21718e-06
2	1	0	0	0	1.5548	-0.315543	-0.315535	0.0153389	1	3.80248e-05	39	1.4998	-4.83996e-06
2	1	0	0	0	1.9548	-0.319542	-0.319565	0.0141667	1	4.38086e-05	39	1.8998	-4.52719e-06
2	1	0	1	0	2.3546	-0.323542	-0.323569	0.0132456	1	4.91713e-05	39	2.2996	-4.28587e-06
2	1	0	1	0	2.7546	-0.327541	-0.327584	0.0126272	1	5.42337e-05	39	2.6996	-4.13648e-06
2	1	0	1	0	3.1546	-0.33154	-0.331579	0.0121742	1	5.90287e-05	39	3.0996	-4.03673e-06
2	1	0	0	0	3.5544	-0.33554	-0.335571	0.0115675	1	6.3599e-05	39	3.4994	-3.88173e-06
2	1	0	0	0	3.9544	-0.339539	-0.339536	0.0110759	1	6.7965e-05	39	3.8994	-3.76067e-06
2	1	0	0	0	4.3544	-0.343538	-0.343544	0.0105895	1	7.21529e-05	39	4.2994	-3.63798e-06
2	1	0	1	0	4.7542	-0.347537	-0.347542	0.0100311	1	7.61446e-05	39	4.6992	-3.48624e-06
2	1	0	1	0	5.1542	-0.351537	-0.351555	0.00984879	1	7.99801e-05	39	5.0992	-3.46239e-06
2	1	0	1	0	5.5542	-0.355536	-0.355574	0.0094959	1	8.36976e-05	39	5.4992	-3.3765e-06
2	1	0	0	0	5.954	-0.359535	-0.359583	0.00917377	1	8.72401e-05	39	5.899	-3.29874e-06
2	1	0	0	0	6.354	-0.363535	-0.36355	0.00887412	1	9.06895e-05	39	6.299	-3.22619e-06
2	1	0	1	0	6.7539	-0.367534	-0.36754	0.00858031	1	9.40557e-05	39	6.6989	-3.15361e-06
2	1	0	1	0	7.1538	-0.371533	-0.371572	0.00835861	1	9.72936e-05	39	7.0988	-3.10583e-06
2	1	0	1	0	7.5538	-0.375532	-0.375547	0.00811352	1	0.000100436	39	7.4988	-3.04701e-06
2	1	0	0	0	7.9536	-0.379532	-0.379535	0.00770381	1	0.000103476	39	7.8986	-2.92386e-06
2	1	0	0	0	8.3536	-0.383531	-0.383525	0.00755134	1	0.000106361	39	8.2986	-2.89613e-06
2	1	0	0	0	8.7536	-0.38753	-0.387533	0.00716764	1	0.00010917	39	8.6986	-2.7777e-06
2	1	0	1	0	9.1534	-0.39153	-0.391506	0.00705112	1	0.000111873	39	9.0984	-2.76055e-06
2	1	0	1	0	9.5534	-0.395529	-0.395527	0.00687114	1	0.000114507	39	9.4984	-2.71772e-06
2	1	0	1	0	9.9534	-0.399528	-0.399524	0.00658952	1	0.000117073	39	9.8984	-2.63267e-06
2	1	0	0	0	10.3532	-0.403528	-0.403524	0.00665035	1	0.00011959	39	10.2982	-2.68358e-06
2	1	0	0	0	10.7532	-0.407527	-0.40752	0.00648234	1	0.000122035	39	10.6982	-2.64168e-06
2	1	0	0	0	11.1532	-0.411526	-0.411534	0.00637264	1	0.000124416	39	11.0982	-2.62256e-06
2	1	0	1	0	11.553	-0.415525	-0.415534	0.00616395	1	0.000126791	39	11.498	-2.56133e-06
2	1	0	1	0	11.953	-0.419525	-0.419528	0.00598328	1	0.00012906	39	11.898	-2.51015e-06
2	1	0	1	0	12.353	-0.423524	-0.423547	0.00595963	1	0.000131303	39	12.298	-2.52418e-06
2	1	0	0	0	12.7528	-0.427523	-0.427573	0.00587104	1	0.000133493	39	12.6978	-2.5103e-06
2	1	0	0	0	13.1528	-0.431523	-0.431567	0.00569395	1	0.000135604	39	13.0978	-2.45732e-06
2	1	0	1	0	13.5527	-0.435522	-0.435543	0.00548177	1	0.000137664	39	13.4977	-2.38754e-06
2	1	0	1	0	13.9526	-0.439521	-0.43953	0.005407	1	0.000139655	39	13.8976	-2.37654e-06
2	1	0	1	0	14.3526	-0.443521	-0.443566	0.00528649	1	0.000141612	39	14.2976	-2.3449e-06
2	1	0	0	0	14.7524	-0.44752	-0.447563	0.00509081	1	0.000143527	39	14.6974	-2.27846e-06
2	1	0	0	0	15.1524	-0.451519	-0.451562	0.00489212	1	0.000145361	39	15.0974	-2.2091e-06
2	1	0	0	0	15.5524	-0.455518	-0.455548	0.00482969	1	0.000147163	39	15.4974	-2.20015e-06
2	1	0	1	0	15.9522	-0.459518	-0.459558	0.00481434	1	0.000148923	39	15.8972	-2.21247e-06
2	1	0	1	0	16.3522	-0.463517	-0.463567	0.00479085	1	0.000150646	39	16.2972	-2.22088e-06
2	1	0	1	0	16.7522	-0.467516	-0.46752	0.00461094	1	0.000152312	39	16.6972	-2.15571e-06
2	1	0	0	0	17.152	-0.471516	-0.471531	0.0045044	1	0.00015395	39	17.097	-2.12396e-06
2	1	0	0	0	17.552	-0.475515	-0.475542	0.0042374	1	0.000155534	39	17.497	-2.01506e-06
2	1	0	0	0	17.952	-0.479514	-0.479532	0.00418952	1	0.000157052	39	17.897	-2.00901e-06
2	1	0	1	0	18.3518	-0.483513	-0.483545	0.00409485	1	0.000158538	39	18.2968	-1.98004e-06
2	1	0	1	0	18.7518	-0.487513	-0.487528	0.00407092	1	0.000160002	39	18.6968	-1.98469e-06
2	1	0	1	0	19.1518	-0.491512	-0.491519	0.00385089	1	0.000161429	39	19.0968	-1.89279e-06
2	1	0	0	0	19.5516	-0.495511	-0.495485	0.00374	1	0.000162804	39	19.4966	-1.85311e-06
2	1	0	0	0	19.9516	-0.499511	-0.499533	0.00377125	1	0.000164125	39	19.8966	-1.88386e-06
2	1	0	1	0	20.3515	-0.503509	-0.503521	0.00374968	1	0.000165462	39	20.2965	-1.88804e-06
2	1	0	1	0	20.7514	-0.507509	-0.507538	0.0034955	1	0.000166755	39	20.6964	-1.7741e-06
2	1	0	1	0	21.1514	-0.511509	-0.511525	0.00355388	1	0.000168012	39	21.0964	-1.8179e-06
2	1	0	1	0	21.5513	-0.515509	-0.515511	0.00335779	1	0.000169229	39	21.4963	-1.73098e-06
2	1	0	0	0	21.9512	-0.519507	-0.519515	0.00334976	1	0.00017045	39	21.8962	-1.74025e-06
2	1	0	0	0	22.3512	-0.523506	-0.523533	0.00339855	1	0.000171637	39	22.2962	-1.77926e-06
2	1	0	1	0	22.751	-0.527506	-0.527514	0.0031299	1	0.000172785	39	22.696	-1.65107e-06
2	1	0	1	0	23.151	-0.531505	-0.531515	0.00314205	1	0.000173891	39	23.096	-1.67005e-06
2	1	0	1	0	23.551	-0.535504	-0.535493	0.00307227	1	0.00017497	39	23.496	-1.64518e-06
2	1	0	0	0	23.9508	-0.539504	-0.539496	0.0030397	1	0.000176039	39	23.8958	-1.6399e-06
2	1	0	0	0	24.3508	-0.543503	-0.543489	0.00302184	1	0.000177089	39	24.2958	-1.64234e-06
2	1	0	0	0	24.7508	-0.547502	-0.547502	0.0030077	1	0.000178095	39	24.6958	-1.64672e-06
2	1	0	1	0	25.1506	-0.551502	-0.551529	0.00283337	1	0.000179077	39	25.0956	-1.56269e-06
2	1	0	1	0	25.5506	-0.555501	-0.5555	0.00284793	1	0.000180036	39	25.4956	-1.58202e-06
2	1	0	1	0	25.9506	-0.5595	-0.559492	0.00262531	1	0.000180969	39	25.8956	-1.46884e-06
2	1	0	0	0	26.3504	-0.563499	-0.563493	0.00251524	1	0.000181858	39	26.2954	-1.41732e-06
2	1	0	0	0	26.7504	-0.567499	-0.567486	0.00251351	1	0.000182712	39	26.6954	-1.42638e-06
2	1	0	1	0	27.1503	-0.571497	-0.57151	0.00251523	1	0.000183555	39	27.0953	-1.43748e-06
2	1	0	1	0	27.5502	-0.575497	-0.575498	0.00255818	1	0.00018438	39	27.4952	-1.47223e-06
2	1	0	1	0	27.9502	-0.579496	-0.579525	0.00246929	1	0.000185194	39	27.8952	-1.43102e-06
2	1	0	1	0	28.3501	-0.583496	-0.583491	0.00237988	1	0.000185996	39	28.2951	-1.38864e-06
2	1	0	0	0	28.75	-0.587495	-0.587507	0.00236223	1	0.000186786	39	28.695	-1.38783e-06
2	1	0	0	0	29.15	-0.591494	-0.591498	0.0023179	1	0.000187559	39	29.095	-1.37103e-06
2	1	0	1	0	29.5498	-0.595494	-0.595502	0.00220662	1	0.0001883	39	29.4948	-1.31405e-06
2	1	0	1	0	29.9498	-0.599493	-0.599485	0.00210933	1	0.000189024	39	29.8948	-1.26451e-06
2	1	0	1	0	30.3498	-0.603492	-0.603492	0.00221875	1	0.00018971	39	30.2948	-1.339e-06
2	1	0	0	0	30.7496	-0.607492	-0.607478	0.00202671	1	0.000190387	39	30.6946	-1.23118e-06
2	1	0	0	0	31.1496	-0.611491	-0.611482	0.00205734	1	0.000191066	39	31.0946	-1.25803e-06
2	1	0	0	0	31.5496	-0.61549	-0.615517	0.00202962	1	0.00019173	39	31.4946	-1.24927e-06
2	1	0	1	0	31.9494	-0.619489	-0.619491	0.00198034	1	0.000192353	39	31.8944	-1.2268e-06
2	1	0	1	0	32.3494	-0.623489	-0.623492	0.00184711	1	0.000192958	39	32.2944	-1.15166e-06
2	1	0	1	0	32.7494	-0.627488	-0.627495	0.00189841	1	0.000193539	39	32.6944	-1.19124e-06
2	1	0	0	0	33.1492	-0.631487	-0.631496	0.00185751	1	0.000194101	39	33.0942	-1.17301e-06
2	1	0	0	0	33.5492	-0.635487	-0.635502	0.00173105	1	0.000194635	39	33.4942	-1.10009e-06
2	1	0	1	0	33.9491	-0.639485	-0.63949	0.00169067	1	0.000195154	39	33.8941	-1.08117e-06
2	1	0	1	0	34.349	-0.643485	-0.643512	0.00161816	1	0.000195647	39	34.294	-1.0413e-06
2	1	0	1	0	34.749	-0.647485	-0.647506	0.00159758	1	0.000196125	39	34.694	-1.03444e-06
2	1	0	1	0	35.1489	-0.651484	-0.651485	0.00149121	1	0.000196585	39	35.0939	-9.715e-07
2	1	0	0	0	35.5488	-0.655483	-0.655496	0.00157662	1	0.000197027	39	35.4938	-1.03347e-06
2	1	0	0	0	35.9488	-0.659482	-0.659498	0.00143891	1	0.000197462	39	35.8938	-9.48956e-07
2	1	0	1	0	36.3486	-0.663482	-0.663489	0.00132854	1	0.000197838	39	36.2936	-8.8147e-07
2	1	0	1	0	36.7486	-0.667481	-0.667477	0.00134409	1	0.00019819	39	36.6936	-8.97151e-07
2	1	0	1	0	37.1486	-0.67148	-0.671473	0.0012788	1	0.000198533	39	37.0936	-8.5868e-07
2	1	0	0	0	37.5484	-0.67548	-0.675453	0.00124231	1	0.000198827	39	37.4934	-8.39125e-07
2	1	0	0	0	37.9484	-0.679479	-0.679502	0.0012634	1	0.00019914	39	37.8934	-8.58484e-07
2	1	0	0	0	38.3484	-0.683478	-0.683483	0.00120001	1	0.000199413	39	38.2934	-8.20185e-07
2	1	0	1	0	38.7482	-0.687478	-0.687485	0.00112961	1	0.000199675	39	38.6932	-7.76592e-07
2	1	0	1	0	39.1482	-0.691477	-0.691479	0.000929053	1	0.000199891	39	39.0932	-6.42421e-07
2	1	0	1	0	39.5482	-0.695476	-0.695469	0.000862838	1	0.000200077	39	39.4932	-6.00077e-07
2	1	0	0	0	39.948	-0.699475	-0.699479	0.000904012	1	0.000200238	39	39.893	-6.32337e-07
2	1	0	0	0	40.348	-0.703475	-0.703483	0.000894999	1	0.000200395	39	40.293	-6.29616e-07
2	1	0	0	0	40.748	-0.707474	-0.707499	0.000791378	1	0.000200533	39	40.693	-5.59899e-07
2	1	0	1	0	41.1478	-0.711473	-0.71147	0.000722793	1	0.000200639	39	41.0928	-5.14246e-07
2	1	0	1	0	41.5478	-0.715473	-0.715499	0.000584742	1	0.000200718	39	41.4928	-4.18382e-07
2	1	0	1	0	41.9477	-0.719472	-0.719486	0.000536808	1	0.000200755	39	41.8927	-3.86226e-07
2	1	0	0	0	42.3476	-0.723471	-0.723494	0.000485091	1	0.000200755	39	0.000000000000000E+000	-3.5096e-07
2	1	0	0	0	42.7476	-0.72747	-0.727477	0.000449333	1	0.000200745	39	0.2	-3.26879e-07
2	1	0	1	0	43.1474	-0.73147	-0.73148	0.000287607	1	0.00020068	39	0.5998	-2.10379e-07
2	0	0	1	0	43.5474	-0.735469	-0.735498	0.000191143	1	0.000200568	39	0.9998	-1.40585e-07
2	1	0	1	0	43.9474	-0.739468	-0.739468	3.16563e-05	1	0.000200416	39	1.3998	-2.34089e-08
2	1	0	0	0	44.3472	-0.743468	-0.743473	-3.19138e-05	1	0.000200224	39	1.7996	2.37271e-08
2	0	0	0	0	44.7472	-0.747467	-0.747481	-0.000116869	1	0.000199989	39	2.1996	8.7357e-08
2	1	0	0	0	45.1472	-0.751466	-0.751463	-0.000279616	1	0.000199716	39	2.5996	2.10121e-07
2	0	0	1	0	45.547	-0.755466	-0.755477	-0.000407727	1	0.000199385	39	2.9994	3.08028e-07
2	1	0	1	0	45.947	-0.759465	-0.759486	-0.000555814	1	0.000198977	39	3.3994	4.22133e-07
2	1	0	1	0	46.347	-0.763464	-0.763468	-0.000546629	1	0.000198539	39	3.7994	4.17334e-07
2	0	0	0	0	46.7468	-0.767463	-0.76748	-0.000808995	1	0.000198075	39	4.1992	6.20887e-07
2	1	0	0	0	47.1468	-0.771463	-0.771484	-0.000965589	1	0.000197552	39	4.5992	7.44936e-07
2	1	0	0	0	47.5468	-0.775462	-0.775484	-0.00104964	1	0.00019698	39	4.9992	8.13977e-07
2	0	0	1	0	47.9466	-0.779461	-0.779474	-0.00112372	1	0.00019633	39	5.399	8.75911e-07
2	1	0	1	0	48.3466	-0.783461	-0.783452	-0.00116883	1	0.000195648	39	5.799	9.15722e-07
2	1	0	1	0	48.7465	-0.78746	-0.787466	-0.00146259	1	0.000194894	39	6.1989	1.15174e-06
2	0	0	0	0	49.1464	-0.791459	-0.791465	-0.00164457	1	0.000194066	39	6.5988	1.30162e-06
2	1	0	0	0	49.5464	-0.795458	-0.795463	-0.00183045	1	0.00019318	39	6.9988	1.45606e-06
2	0	0	1	0	49.9462	-0.799458	-0.799455	-0.00186057	1	0.000192242	39	7.3986	1.48744e-06
2	1	0	1	0	50.3462	-0.803457	-0.803454	-0.00201274	1	0.000191257	39	7.7986	1.61715e-06
2	1	0	1	0	50.7462	-0.807456	-0.807458	-0.0020666	1	0.000190234	39	8.1986	1.66869e-06
2	1	0	0	0	51.146	-0.811456	-0.811457	-0.00231215	1	0.000189136	39	8.5984	1.87621e-06
2	0	0	0	0	51.546	-0.815455	-0.815457	-0.00255277	1	0.000187982	39	8.9984	2.08168e-06
2	0	0	0	0	51.946	-0.819454	-0.819461	-0.00251946	1	0.000186753	39	9.3984	2.0646e-06
2	0	0	1	0	52.3458	-0.823454	-0.823476	-0.00289044	1	0.00018545	39	9.7982	2.38021e-06
2	0	0	1	0	52.7458	-0.827453	-0.827455	-0.00300576	1	0.000184042	39	10.1982	2.48713e-06
2	0	0	1	0	53.1458	-0.831452	-0.831459	-0.00322848	1	0.000182568	39	10.5982	2.68434e-06
2	0	0	0	0	53.5456	-0.835452	-0.835468	-0.00333445	1	0.000181011	39	10.998	2.78582e-06
2	0	0	0	0	53.9456	-0.839451	-0.839465	-0.00366771	1	0.00017938	39	11.398	3.07891e-06
2	0	0	0	0	54.3456	-0.84345	-0.843459	-0.00390061	1	0.000177635	39	11.798	3.29001e-06
2	0	0	1	0	54.7454	-0.847449	-0.847446	-0.00409541	1	0.000175795	39	12.1978	3.47064e-06
2	0	0	1	0	55.1454	-0.851449	-0.851461	-0.00439137	1	0.000173858	39	12.5978	3.73908e-06
2	0	0	1	0	55.5453	-0.855447	-0.855461	-0.00465147	1	0.000171817	39	12.9977	3.97916e-06
2	0	0	0	0	55.9452	-0.859447	-0.859455	-0.00502058	1	0.000169642	39	13.3976	4.31497e-06
2	0	0	0	0	56.3452	-0.863447	-0.863457	-0.00529939	1	0.000167367	39	13.7976	4.5758e-06
2	0	0	1	0	56.7451	-0.867446	-0.867439	-0.00571559	1	0.000164946	39	14.1975	4.95793e-06
2	0	0	1	0	57.145	-0.871445	-0.871448	-0.00591048	1	0.000162393	39	14.5974	5.15067e-06
2	0	0	1	0	57.545	-0.875444	-0.875444	-0.00632097	1	0.000159699	39	14.9974	5.53366e-06
2	0	0	0	0	57.9448	-0.879444	-0.879436	-0.00668242	1	0.000156871	39	15.3972	5.87676e-06
2	0	0	0	0	58.3448	-0.883443	-0.883462	-0.00691302	1	0.000153933	39	15.7972	6.10739e-06
2	0	0	0	0	58.7448	-0.887442	-0.887461	-0.00719122	1	0.000150883	39	16.1972	6.38192e-06
2	0	0	1	0	59.1446	-0.891442	-0.891455	-0.00744372	1	0.000147725	39	16.597	6.63574e-06
2	0	0	1	0	59.5446	-0.895441	-0.895439	-0.00770161	1	0.000144481	39	16.997	6.89632e-06
2	0	0	1	0	59.9446	-0.89944	-0.899446	-0.00777599	1	0.000141156	39	17.397	6.99408e-06
2	0	0	0	0	60.3444	-0.90344	-0.90344	-0.00809549	1	0.000137739	39	17.7968	7.31379e-06
2	0	0	0	0	60.7444	-0.907439	-0.907445	-0.00821157	1	0.000134229	39	18.1968	7.45154e-06
2	0	0	0	0	61.1444	-0.911438	-0.911453	-0.00831078	1	0.000130689	39	18.5968	7.57488e-06
2	0	0	1	0	61.5442	-0.915437	-0.915437	-0.00852146	1	0.000127069	39	18.9966	7.80086e-06
2	0	0	1	0	61.9442	-0.919437	-0.919462	-0.00865165	1	0.000123377	39	19.3966	7.95486e-06
2	0	0	1	0	62.3441	-0.923435	-0.923465	-0.00907725	1	0.000119582	39	19.7965	8.38252e-06
2	0	0	0	0	62.744	-0.927435	-0.92745	-0.00922222	1	0.000115702	39	20.1964	8.55315e-06
2	0	0	0	0	63.144	-0.931435	-0.931434	-0.00952021	1	0.000111722	39	20.5964	8.86745e-06
2	0	0	1	0	63.5439	-0.935434	-0.935424	-0.00979519	1	0.000107625	39	20.9963	9.16266e-06
2	0	0	1	0	63.9438	-0.939433	-0.939446	-0.010256	1	0.00010338	39	21.3962	9.63493e-06
2	0	0	1	0	64.3438	-0.943433	-0.943441	-0.0105252	1	9.8998e-05	39	21.7962	9.92992e-06
2	0	0	0	0	64.7436	-0.947432	-0.947429	-0.0110424	1	9.4439e-05	39	22.196	1.04619e-05
2	0	0	0	0	65.1436	-0.951431	-0.951427	-0.0115348	1	8.96758e-05	39	22.596	1.09745e-05
2	0	0	0	0	65.5436	-0.95543	-0.955418	-0.0120592	1	8.47086e-05	39	22.996	1.15215e-05
2	0	0	1	0	65.9434	-0.95943	-0.959414	-0.0127579	1	7.94908e-05	39	23.3958	1.22402e-05
2	0	0	1	0	66.3434	-0.963429	-0.963434	-0.01341	1	7.40107e-05	39	23.7958	1.29197e-05
2	0	0	1	0	66.7434	-0.967428	-0.967403	-0.0141316	1	6.82435e-05	39	24.1958	1.3671e-05
2	0	0	0	0	67.1432	-0.971428	-0.971416	-0.0150497	1	6.21577e-05	39	24.5956	1.46195e-05
2	0	0	0	0	67.5432	-0.975427	-0.975417	-0.0159278	1	5.5708e-05	39	24.9956	1.55363e-05
2	0	0	0	0	67.9432	-0.979426	-0.979403	-0.0170262	1	4.88674e-05	39	25.3956	1.66755e-05
2	0	0	1	0	68.343	-0.983425	-0.983419	-0.0179441	1	4.16403e-05	39	25.7954	1.76466e-05
2	0	0	1	0	68.743	-0.987425	-0.987429	-0.0191544	1	3.39443e-05	39	26.1954	1.89136e-05
2	0	0	1	0	69.143	-0.991424	-0.991418	-0.0203986	1	2.57732e-05	39	26.5954	2.02235e-05
2	0	0	0	0	69.5428	-0.995423	-0.995411	-0.0217137	1	1.70733e-05	39	26.9952	2.1614e-05
2	0	0	0	0	69.9428	-0.999423	-0.999388	-0.0231252	1	7.87652e-06	39	27.3952	2.31111e-05
2	0	0	1	0	70.3427	-1.00342	-1.00341	-0.0244404	1	-1.88396e-06	39	27.7951	2.45238e-05
2	0	0	1	0	70.7426	-1.00742	-1.0074	-0.0258779	1	-1.2219e-05	39	28.195	2.60693e-05
2	0	0	1	0	71.1426	-1.01142	-1.0114	-0.0274105	1	-2.31621e-05	39	28.595	2.7723e-05
2	0	0	0	0	71.5424	-1.01542	-1.01541	-0.0287866	1	-3.46687e-05	39	28.9948	2.92301e-05
2	0	0	0	0	71.9424	-1.01942	-1.01941	-0.0301637	1	-4.67343e-05	39	29.3948	3.07492e-05
2	0	0	0	0	72.3424	-1.02342	-1.0234	-0.0315522	1	-5.93631e-05	39	29.7948	3.22906e-05
2	0	0	1	0	72.7422	-1.02742	-1.0274	-0.0327821	1	-7.24941e-05	39	30.1946	3.36801e-05
2	0	0	1	0	73.1422	-1.03142	-1.03141	-0.0339669	1	-8.6113e-05	39	30.5946	3.50337e-05
2	0	0	1	0	73.5422	-1.03542	-1.0354	-0.0349867	1	-0.000100159	39	30.9946	3.62252e-05
2	0	0	0	0	73.942	-1.03942	-1.03942	-0.0360418	1	-0.000114615	39	31.3944	3.74626e-05
2	0	0	0	0	74.342	-1.04341	-1.04339	-0.0367543	1	-0.000129438	39	31.7944	3.83489e-05
2	0	0	0	0	74.742	-1.04741	-1.04742	-0.0373379	1	-0.000144531	39	32.1944	3.91084e-05
2	0	0	1	0	75.1418	-1.05141	-1.0514	-0.037924	1	-0.000159842	39	32.5942	3.98735e-05
2	0	0	1	0	75.5418	-1.05541	-1.05541	-0.0382985	1	-0.000175333	39	32.9942	4.04206e-05
2	0	0	1	0	75.9418	-1.05941	-1.05938	-0.038601	1	-0.000190961	39	33.3942	4.08931e-05
2	0	0	0	0	76.3416	-1.06341	-1.06341	-0.0384968	1	-0.000206618	39	33.794	4.09379e-05
2	0	0	0	0	76.7416	-1.06741	-1.06741	-0.0385888	1	-0.000222292	39	34.194	4.11902e-05
2	0	0	1	0	77.1415	-1.07141	-1.0714	-0.0383765	1	-0.00023795	39	34.5939	4.11165e-05
2	0	0	1	0	77.5414	-1.07541	-1.07542	-0.0380827	1	-0.000253481	39	34.9938	4.0955e-05
2	0	0	1	0	77.9414	-1.07941	-1.07939	-0.0375426	1	-0.000268876	39	35.3938	4.05233e-05
2	0	0	0	0	78.3412	-1.08341	-1.08338	-0.0370519	1	-0.000284051	39	35.7936	4.01414e-05
2	0	0	0	0	78.7412	-1.08741	-1.08739	-0.0362753	1	-0.000298977	39	36.1936	3.94453e-05
2	0	0	0	0	79.1412	-1.09141	-1.09139	-0.0353724	1	-0.000313603	39	36.5936	3.86051e-05
2	0	0	1	0	79.541	-1.09541	-1.09538	-0.0346065	1	-0.000327843	39	36.9934	3.79074e-05
2	0	0	1	0	79.941	-1.0994	-1.09939	-0.0336401	1	-0.000341752	39	37.3934	3.69836e-05
2	0	0	1	0	80.341	-1.1034	-1.10337	-0.0328616	1	-0.000355309	39	37.7934	3.62587e-05
2	0	0	0	0	80.7408	-1.1074	-1.10739	-0.0317123	1	-0.000368471	39	38.1932	3.5118e-05
2	0	0	0	0	81.1408	-1.1114	-1.11137	-0.0306828	1	-0.000381194	39	38.5932	3.40998e-05
2	0	0	0	0	81.5408	-1.1154	-1.11538	-0.0297626	1	-0.000393548	39	38.9932	3.31967e-05
2	0	0	1	0	81.9406	-1.1194	-1.1194	-0.0288237	1	-0.00040554	39	39.393	3.22652e-05
2	0	0	1	0	82.3406	-1.1234	-1.1234	-0.0281369	1	-0.000417188	39	39.793	3.1609e-05
2	0	0	1	0	82.7406	-1.1274	-1.1274	-0.0271306	1	-0.000428514	39	40.193	3.0587e-05
2	0	0	0	0	83.1404	-1.1314	-1.13138	-0.0263758	1	-0.000439493	39	40.5928	2.98411e-05
2	0	0	0	0	83.5404	-1.1354	-1.13539	-0.0257354	1	-0.000450177	39	40.9928	2.92198e-05
2	0	0	1	0	83.9403	-1.1394	-1.1394	-0.024995	1	-0.000460589	39	41.3927	2.84793e-05
2	0	0	1	0	84.3402	-1.1434	-1.1434	-0.0245371	1	-0.000470762	39	41.7926	2.80558e-05
2	0	0	1	0	84.7402	-1.1474	-1.14739	-0.0243307	1	-0.000480793	39	42.1926	2.79167e-05
2	0	0	1	0	85.14	-1.1514	-1.15141	-0.0243375	1	-0.000490781	39	42.5924	2.80223e-05
2	0	0	0	0	85.54	-1.1554	-1.15537	-0.0240293	1	-0.000500715	39	42.9924	2.77627e-05
2	0	0	0	0	85.94	-1.15939	-1.15938	-0.0241682	1	-0.000510623	39	43.3924	2.802e-05
2	0	0	1	0	86.3398	-1.16339	-1.16338	-0.0245245	1	-0.000520625	39	43.7922	2.85312e-05
2	0	0	1	0	86.7398	-1.16739	-1.16738	-0.024754	1	-0.000530701	39	44.1922	2.88974e-05
2	0	0	1	0	87.1398	-1.17139	-1.17139	-0.0254702	1	-0.000540953	39	44.5922	2.98355e-05
2	0	0	0	0	87.5396	-1.17539	-1.17539	-0.0263584	1	-0.000551532	39	44.992	3.09815e-05
2	0	0	0	0	87.9396	-1.17939	-1.17937	-0.0277366	1	-0.000562552	39	45.392	3.27116e-05
2	0	0	0	0	88.3396	-1.18339	-1.18338	-0.0297354	1	-0.00057426	39	45.792	3.51884e-05
2	0	0	1	0	88.7394	-1.18739	-1.18739	-0.0326352	1	-0.000586966	39	46.1918	3.87508e-05
2	0	0	1	0	89.1394	-1.19139	-1.19139	-0.0364891	1	-0.000601048	39	46.5918	4.34727e-05
2	0	0	1	0	89.5394	-1.19539	-1.19538	-0.0407024	1	-0.000616747	39	46.9918	4.86549e-05
2	0	0	0	0	89.9392	-1.19939	-1.19935	-0.0448149	1	-0.000634058	39	47.3916	5.37487e-05
2	0	0	0	0	90.3392	-1.20339	-1.20335	-0.0484591	1	-0.000652955	39	47.7916	5.83134e-05
2	0	0	1	0	90.7392	-1.20739	-1.20735	-0.0517335	1	-0.000673256	39	48.1916	6.24606e-05
2	0	0	1	0	91.139	-1.21139	-1.21138	-0.0541294	1	-0.000694749	39	48.5914	6.5571e-05
2	0	0	1	0	91.539	-1.21538	-1.21537	-0.0565483	1	-0.000717119	39	48.9914	6.87272e-05
2	0	0	1	0	91.9389	-1.21938	-1.21937	-0.0581596	1	-0.000740421	39	49.3913	7.09178e-05
2	0	0	0	0	92.3388	-1.22338	-1.22338	-0.0602471	1	-0.000764473	39	49.7912	7.37049e-05
2	0	0	0	0	92.7388	-1.22738	-1.22737	-0.0628966	1	-0.000789409	39	50.1912	7.71971e-05
2	0	0	1	0	93.1386	-1.23138	-1.23138	-0.0642727	1	-0.0008151	39	50.591	7.9144e-05
2	0	0	1	0	93.5386	-1.23538	-1.23537	-0.0661175	1	-0.000841421	39	50.991	8.16797e-05
2	0	0	1	0	93.9386	-1.23938	-1.23937	-0.0690085	1	-0.000868763	39	51.391	8.55272e-05
2	0	0	0	0	94.3384	-1.24338	-1.24338	-0.071724	1	-0.000897182	39	51.7908	8.918e-05
2	0	0	0	0	94.7384	-1.24738	-1.24738	-0.0751205	1	-0.000926964	39	52.1908	9.37035e-05
2	0	0	0	0	95.1384	-1.25138	-1.25137	-0.08152	1	-0.000958665	39	52.5908	0.000102012
2	0	0	1	0	95.5382	-1.25538	-1.25536	-0.0849202	1	-0.000992273	39	52.9906	0.000106606
2	0	0	1	0	95.9382	-1.25938	-1.25937	-0.0913535	1	-0.00102792	39	53.3906	0.000115048
2	0	0	1	0	96.3382	-1.26338	-1.26335	-0.0991395	1	-0.00106622	39	53.7906	0.000125247
2	0	0	0	0	96.738	-1.26738	-1.26736	-0.108741	1	-0.00110807	39	54.1904	0.000137814
2	0	0	0	0	97.138	-1.27137	-1.27137	-0.122171	1	-0.00115432	39	54.5904	0.000155324
2	0	0	1	0	97.538	-1.27537	-1.27538	-0.134827	1	-0.00120564	39	54.9904	0.000171955
2	0	0	1	0	97.9378	-1.27937	-1.27937	-0.15302	1	-0.00126335	39	55.3902	0.000195769
2	0	0	1	0	98.3378	-1.28337	-1.28336	-0.176166	1	-0.0013295	39	55.7902	0.000226084
2	0	0	1	0	98.7377	-1.28737	-1.28733	-0.207631	1	-0.00140609	39	56.1901	0.00026729
2	0	0	0	0	99.1376	-1.29137	-1.29134	-0.256774	1	-0.00149874	39	56.59	0.000331583
2	0	0	0	0	99.5376	-1.29537	-1.29537	-0.326399	1	-0.00161372	39	56.99	0.000422806
2	0	0	1	0	99.9374	-1.29937	-1.29934	-0.43599	1	-0.00176653	39	57.3898	0.000566502
2	0	0	1	0	100.337	-1.30337	-1.30335	-0.577168	1	-0.00196978	39	57.7898	0.000752251
2	0	0	1	0	100.737	-1.30737	-1.30733	-0.737019	1	-0.0022317	39	58.1898	0.000963526
2	0	0	0	0	101.137	-1.31137	-1.31133	-0.906732	1	-0.00256086	39	58.5896	0.00118902
2	0	0	0	0	101.537	-1.31537	-1.31534	-1.07021	1	-0.00295715	39	58.9896	0.00140768
2	0	0	0	0	101.937	-1.31937	-1.31933	-1.22664	1	-0.00342008	39	59.3896	0.00161834
2	0	0	1	0	102.337	-1.32337	-1.32335	-1.36555	1	-0.00394185	39	59.7894	0.00180709
2	0	0	1	0	102.737	-1.32736	-1.32735	-1.4955	1	-0.00451664	39	60.1894	0.00198506
2	0	0	1	0	103.137	-1.33136	-1.33135	-1.59445	1	-0.00513698	39	60.5894	0.00212277
2	0	0	0	0	103.537	-1.33536	-1.33534	-1.67266	1	-0.00579038	39	60.9892	0.00223357
2	0	0	0	0	103.937	-1.33936	-1.33936	-1.72673	1	-0.00647056	39	61.3892	0.00231272
2	0	0	1	0	104.337	-1.34336	-1.34338	-1.74678	1	-0.00716905	39	61.7891	0.0023466
2	0	0	1	0	104.737	-1.34736	-1.34738	-1.78913	1	-0.00787557	39	62.189	0.00241063
2	0	0	0	1	105.002	-1.35001	-1.35	-1.80213	1	-0.00835306	39	62.4546	0.00243288
2	0	0	0	1	105.357	-1.34646	-1.34645	-1.66167	2	-0.00896523	39	62.8096	0.00223735
2	0	0	1	1	105.757	-1.34246	-1.34246	-1.52715	2	-0.00959992	39	63.2094	0.00205015
2	0	0	1	1	106.157	-1.33846	-1.33845	-1.41983	2	-0.0101874	39	63.6094	0.00190038
2	0	0	1	1	106.557	-1.33446	-1.33446	-1.32787	2	-0.0107369	39	64.0094	0.00177199
2	0	0	0	1	106.957	-1.33046	-1.33045	-1.25244	2	-0.0112521	39	64.4092	0.0016663
2	0	0	0	1	107.357	-1.32647	-1.32645	-1.17809	2	-0.0117359	39	64.8092	0.00156268
2	0	0	0	1	107.757	-1.32247	-1.32246	-1.10468	2	-0.0121918	39	65.2092	0.0014609
2	0	0	1	1	108.157	-1.31847	-1.31846	-1.03521	2	-0.0126188	39	65.609	0.00136488
2	0	0	1	1	108.557	-1.31447	-1.31446	-0.974852	2	-0.0130213	39	66.009	0.0012814
2	0	0	1	1	108.956	-1.31047	-1.31045	-0.923439	2	-0.0134005	39	66.4089	0.00121012
2	0	0	0	1	109.356	-1.30647	-1.30645	-0.870374	2	-0.0137579	39	66.8088	0.0011371
2	0	0	0	1	109.756	-1.30247	-1.30246	-0.821262	2	-0.0140953	39	67.2088	0.00106966
2	0	0	1	1	110.156	-1.29847	-1.29846	-0.775761	2	-0.0144144	39	67.6087	0.0010073
2	0	0	1	1	110.556	-1.29447	-1.29447	-0.732336	2	-0.014715	39	68.0086	0.000947988
2	0	0	1	1	110.956	-1.29047	-1.29046	-0.693112	2	-0.0149996	39	68.4086	0.000894431
2	0	0	0	1	111.356	-1.28647	-1.28644	-0.655695	2	-0.0152684	39	68.8084	0.00084351
2	0	0	0	1	111.756	-1.28247	-1.28243	-0.623138	2	-0.0155238	39	69.2084	0.000799128
2	0	0	0	1	112.156	-1.27847	-1.27845	-0.590946	2	-0.0157662	39	69.6084	0.000755494
2	0	0	1	1	112.556	-1.27447	-1.27445	-0.561984	2	-0.0159965	39	70.0082	0.000716224
2	0	0	1	1	112.956	-1.27047	-1.27044	-0.536533	2	-0.0162161	39	70.4082	0.000681635
2	0	0	1	1	113.356	-1.26648	-1.26647	-0.511347	2	-0.0164252	39	70.8082	0.000647606
2	0	0	0	1	113.756	-1.26248	-1.26244	-0.488822	2	-0.0166245	39	71.208	0.00061711
2	0	0	0	1	114.156	-1.25848	-1.25846	-0.46708	2	-0.0168151	39	71.608	0.0005878
2	0	0	0	1	114.556	-1.25448	-1.25445	-0.448117	2	-0.0169975	39	72.008	0.000562139
2	0	0	1	1	114.955	-1.25048	-1.25047	-0.43101	2	-0.017173	39	72.4078	0.000538968
2	0	0	1	1	115.355	-1.24648	-1.24646	-0.415035	2	-0.017342	39	72.8078	0.000517325
2	0	0	1	1	115.755	-1.24248	-1.24246	-0.399591	2	-0.0175044	39	73.2078	0.000496477
2	0	0	0	1	116.155	-1.23848	-1.23847	-0.385189	2	-0.0176607	39	73.6076	0.000477045
2	0	0	0	1	116.555	-1.23448	-1.23447	-0.371989	2	-0.0178117	39	74.0076	0.000459208
2	0	0	1	1	116.955	-1.23048	-1.23049	-0.359318	2	-0.0179576	39	74.4075	0.000442136
2	0	0	1	1	117.355	-1.22648	-1.22648	-0.347803	2	-0.0180986	39	74.8074	0.000426573
2	0	0	1	1	117.755	-1.22248	-1.22247	-0.336697	2	-0.018235	39	75.2074	0.000411603
2	0	0	0	1	118.155	-1.21848	-1.21846	-0.326002	2	-0.0183673	39	75.6072	0.000397221
2	0	0	0	1	118.555	-1.21448	-1.21448	-0.315046	2	-0.0184953	39	76.0072	0.000382619
2	0	0	0	1	118.955	-1.21049	-1.21048	-0.305313	2	-0.0186191	39	76.4072	0.000369575
2	0	0	1	1	119.355	-1.20649	-1.20648	-0.294726	2	-0.0187387	39	76.807	0.000355581
2	0	0	1	1	119.755	-1.20249	-1.20249	-0.284698	2	-0.0188544	39	77.207	0.000342346
2	0	0	1	1	120.155	-1.19849	-1.19851	-0.274198	2	-0.0189659	39	77.607	0.000328628
2	0	0	0	1	120.554	-1.19449	-1.19451	-0.263943	2	-0.0190732	39	78.0068	0.000315281
2	0	0	0	1	120.954	-1.19049	-1.1905	-0.253586	2	-0.0191764	39	78.4068	0.000301894
2	0	0	0	1	121.354	-1.18649	-1.18649	-0.242744	2	-0.0192753	39	78.8068	0.000288014
2	0	0	1	1	121.754	-1.18249	-1.18246	-0.231474	2	-0.0193698	39	79.2066	0.000273709
2	0	0	1	1	122.154	-1.17849	-1.17849	-0.220016	2	-0.0194598	39	79.6066	0.000259286
2	0	0	1	1	122.554	-1.17449	-1.17448	-0.208399	2	-0.0195452	39	80.0066	0.000244761
2	0	0	0	1	122.954	-1.17049	-1.17049	-0.196536	2	-0.0196258	39	80.4064	0.000230043
2	0	0	0	1	123.354	-1.16649	-1.16649	-0.184041	2	-0.0197017	39	80.8064	0.000214683
2	0	0	1	1	123.754	-1.16249	-1.1625	-0.172227	2	-0.0197725	39	81.2063	0.000200213
2	0	0	1	1	124.154	-1.15849	-1.1585	-0.159987	2	-0.0198386	39	81.6062	0.000185346
2	0	0	1	1	124.554	-1.1545	-1.15449	-0.148252	2	-0.0199	39	82.0062	0.000171155
2	0	0	1	1	124.954	-1.1505	-1.1505	-0.137138	2	-0.0199567	39	82.4061	0.000157777
2	0	0	0	1	125.354	-1.1465	-1.14649	-0.125994	2	-0.0200089	39	82.806	0.00014445
2	0	0	0	1	125.754	-1.1425	-1.14251	-0.115761	2	-0.0200569	39	83.206	0.000132258
2	0	0	1	1	126.153	-1.1385	-1.1385	-0.106233	2	-0.020101	39	83.6058	0.000120946
2	0	0	1	1	126.553	-1.1345	-1.1345	-0.0970881	2	-0.0201413	39	84.0058	0.000110146
2	0	0	1	1	126.953	-1.1305	-1.13049	-0.088869	2	-0.0201781	39	84.4058	0.000100466
2	0	0	0	1	127.353	-1.1265	-1.1265	-0.0812918	2	-0.0202118	39	84.8056	9.15755e-05
2	0	0	0	1	127.753	-1.1225	-1.12248	-0.0739859	2	-0.0202425	39	85.2056	8.30479e-05
2	0	0	0	1	128.153	-1.1185	-1.11849	-0.0671997	2	-0.0202704	39	85.6056	7.51623e-05
2	0	0	1	1	128.553	-1.1145	-1.11451	-0.0610897	2	-0.0202957	39	86.0054	6.80848e-05
2	0	0	1	1	128.953	-1.1105	-1.11049	-0.0551938	2	-0.0203186	39	86.4054	6.12924e-05
2	0	0	1	1	129.353	-1.1065	-1.10651	-0.0499451	2	-0.0203393	39	86.8054	5.5265e-05
2	0	0	0	1	129.753	-1.1025	-1.1025	-0.0449243	2	-0.0203579	39	87.2052	4.95288e-05
2	0	0	0	1	130.153	-1.09851	-1.09851	-0.0404291	2	-0.0203747	39	87.6052	4.44119e-05
2	0	0	1	1	130.553	-1.09451	-1.09451	-0.0363081	2	-0.0203897	39	88.0051	3.97395e-05
2	0	0	1	1	130.953	-1.09051	-1.09051	-0.0321988	2	-0.020403	39	88.405	3.51133e-05
2	0	0	1	1	131.353	-1.08651	-1.0865	-0.0283659	2	-0.0204147	39	88.805	3.08194e-05
2	0	0	0	1	131.752	-1.08251	-1.08252	-0.0245869	2	-0.0204249	39	89.2048	2.66158e-05
2	0	0	0	1	132.152	-1.07851	-1.07853	-0.0211655	2	-0.0204337	39	89.6048	2.28276e-05
2	0	0	0	1	132.552	-1.07451	-1.07452	-0.0176859	2	-0.0204411	39	90.0048	1.90039e-05
2	0	0	1	1	132.952	-1.07051	-1.07052	-0.0144426	2	-0.0204472	39	90.4046	1.54612e-05
2	0	0	1	1	133.352	-1.06651	-1.06652	-0.0113696	2	-0.020452	39	90.8046	1.21259e-05
2	0	0	1	1	133.752	-1.06251	-1.06253	-0.00820261	2	-0.0204556	39	91.2046	8.71549e-06
2	0	0	0	1	134.152	-1.05851	-1.0585	-0.00500272	2	-0.0204579	39	91.6044	5.2954e-06
2	0	0	0	1	134.552	-1.05451	-1.05452	-0.00227084	2	-0.020459	39	92.0044	2.39465e-06
2	1	0	0	1	134.952	-1.05051	-1.05053	0.000889243	2	-0.0204589	39	0.1	-9.34173e-07
2	1	0	1	1	135.352	-1.04651	-1.04653	0.00408806	2	-0.0204575	39	0.4998	-4.27826e-06
2	1	0	1	1	135.752	-1.04252	-1.04256	0.00723833	2	-0.0204549	39	0.8998	-7.54639e-06
2	1	0	1	1	136.152	-1.03852	-1.03852	0.0106114	2	-0.020451	39	1.2998	-1.10201e-05
2	1	0	0	1	136.552	-1.03452	-1.03453	0.0135485	2	-0.0204458	39	1.6996	-1.40163e-05
2	1	0	0	1	136.952	-1.03052	-1.03054	0.0157425	2	-0.0204396	39	2.0996	-1.62233e-05
2	1	0	1	1	137.351	-1.02652	-1.02653	0.0175233	2	-0.0204326	39	2.4995	-1.79882e-05
2	1	0	1	1	137.751	-1.02252	-1.02251	0.0190986	2	-0.020425	39	2.8994	-1.95285e-05
2	1	0	1	1	138.151	-1.01852	-1.01852	0.0211519	2	-0.0204167	39	3.2994	-2.15436e-05
2	1	0	1	1	138.551	-1.01452	-1.01452	0.0230272	2	-0.0204076	39	3.6992	-2.33616e-05
2	1	0	0	1	138.951	-1.01052	-1.01053	0.0251768	2	-0.0203976	39	4.0992	-2.54419e-05
2	1	0	0	1	139.351	-1.00652	-1.00654	0.0275916	2	-0.0203867	39	4.4992	-2.77719e-05
2	1	0	1	1	139.751	-1.00252	-1.00251	0.030388	2	-0.0203748	39	4.899	-3.04642e-05
2	1	0	1	1	140.151	-0.998523	-0.998511	0.0331177	2	-0.0203618	39	5.299	-3.30684e-05
2	1	0	1	1	140.551	-0.994523	-0.994513	0.0360592	2	-0.0203477	39	5.699	-3.58613e-05
2	1	0	0	1	140.951	-0.990524	-0.990511	0.039055	2	-0.0203324	39	6.0988	-3.86844e-05
2	1	0	0	1	141.351	-0.986525	-0.986531	0.0420869	2	-0.0203158	39	6.4988	-4.15201e-05
2	1	0	0	1	141.751	-0.982526	-0.982527	0.045289	2	-0.0202981	39	6.8988	-4.44977e-05
2	1	0	1	1	142.151	-0.978526	-0.978537	0.0483305	2	-0.020279	39	7.2986	-4.72932e-05
2	1	0	1	1	142.551	-0.974527	-0.974557	0.051594	2	-0.0202587	39	7.6986	-5.02812e-05
2	1	0	1	1	142.951	-0.970528	-0.970537	0.0548059	2	-0.0202372	39	8.0986	-5.31912e-05
2	1	0	0	1	143.35	-0.966528	-0.966552	0.0580302	2	-0.0202144	39	8.4984	-5.60892e-05
2	1	0	0	1	143.75	-0.962529	-0.96253	0.0612063	2	-0.0201903	39	8.8984	-5.89129e-05
2	1	0	1	1	144.15	-0.958531	-0.958537	0.064315	2	-0.0201649	39	9.2983	-6.16483e-05
2	1	0	1	1	144.55	-0.954531	-0.954527	0.0675686	2	-0.0201382	39	9.6982	-6.44961e-05
2	1	0	1	1	144.95	-0.950531	-0.950536	0.0706154	2	-0.0201104	39	10.0982	-6.71225e-05
2	1	0	1	1	145.35	-0.946531	-0.946531	0.0732569	2	-0.0200814	39	10.4981	-6.93399e-05
2	1	0	0	1	145.75	-0.942533	-0.94256	0.076007	2	-0.0200513	39	10.898	-7.16411e-05
2	1	0	0	1	146.15	-0.938533	-0.938566	0.0786695	2	-0.0200201	39	11.298	-7.38366e-05
2	1	0	1	1	146.55	-0.934534	-0.934532	0.0810204	2	-0.0199879	39	11.6978	-7.57162e-05
2	1	0	1	1	146.95	-0.930535	-0.93053	0.0831499	2	-0.0199548	39	12.0978	-7.73734e-05
2	1	0	1	1	147.35	-0.926535	-0.926544	0.0851868	2	-0.0199209	39	12.4978	-7.89293e-05
2	1	0	0	1	147.75	-0.922536	-0.922531	0.0871308	2	-0.0198862	39	12.8976	-8.03809e-05
2	1	0	0	1	148.15	-0.918537	-0.918534	0.0892694	2	-0.0198507	39	13.2976	-8.19969e-05
2	1	0	0	1	148.55	-0.914538	-0.914551	0.0908245	2	-0.0198145	39	13.6976	-8.30636e-05
2	1	0	1	1	148.949	-0.910538	-0.91053	0.0925579	2	-0.0197776	39	14.0974	-8.42768e-05
2	1	0	1	1	149.349	-0.906539	-0.906505	0.0944334	2	-0.01974	39	14.4974	-8.56043e-05
2	1	0	1	1	149.749	-0.90254	-0.902537	0.0958975	2	-0.0197017	39	14.8974	-8.6551e-05
2	1	0	0	1	150.149	-0.89854	-0.898534	0.0979059	2	-0.0196626	39	15.2972	-8.79718e-05
2	1	0	0	1	150.549	-0.894541	-0.894549	0.0998536	2	-0.0196228	39	15.6972	-8.93239e-05
2	1	0	0	1	150.949	-0.890542	-0.890547	0.101835	2	-0.0195823	39	16.0972	-9.06888e-05
2	1	0	1	1	151.349	-0.886543	-0.886539	0.104144	2	-0.0195409	39	16.497	-9.23278e-05
2	1	0	1	1	151.749	-0.882543	-0.88255	0.106213	2	-0.0194986	39	16.897	-9.37386e-05
2	1	0	1	1	152.149	-0.878544	-0.878557	0.108779	2	-0.0194554	39	17.2969	-9.55684e-05
2	1	0	0	1	152.549	-0.874545	-0.874556	0.111858	2	-0.019411	39	17.6968	-9.78261e-05
2	1	0	0	1	152.949	-0.870545	-0.870547	0.114841	2	-0.0193654	39	18.0968	-9.99746e-05
2	1	0	1	1	153.349	-0.866546	-0.866536	0.118862	2	-0.0193185	39	18.4966	-0.000102998
2	1	0	1	1	153.749	-0.862547	-0.86254	0.122724	2	-0.01927	39	18.8966	-0.000105854
2	1	0	1	1	154.149	-0.858547	-0.858551	0.126922	2	-0.0192199	39	19.2966	-0.000108969
2	1	0	0	1	154.548	-0.854548	-0.85455	0.131252	2	-0.019168	39	19.6964	-0.000112161
2	1	0	0	1	154.948	-0.850549	-0.850549	0.136412	2	-0.0191142	39	20.0964	-0.000116025
2	1	0	0	1	155.348	-0.84655	-0.846549	0.141306	2	-0.0190584	39	20.4964	-0.000119623
2	1	0	1	1	155.748	-0.84255	-0.842567	0.146154	2	-0.0190007	39	20.8962	-0.000123144
2	1	0	1	1	156.148	-0.838551	-0.838557	0.150551	2	-0.0189411	39	21.2962	-0.000126246
2	1	0	1	1	156.548	-0.834552	-0.834571	0.154101	2	-0.0188799	39	21.6962	-0.000128608
2	1	0	0	1	156.948	-0.830552	-0.83056	0.157023	2	-0.0188175	39	22.096	-0.000130417
2	1	0	0	1	157.348	-0.826553	-0.82655	0.158483	2	-0.0187541	39	22.496	-0.000130994
2	1	0	0	1	157.748	-0.822554	-0.822568	0.15911	2	-0.0186903	39	22.896	-0.000130879
2	1	0	1	1	158.148	-0.818555	-0.818562	0.158657	2	-0.0186265	39	23.2958	-0.00012987
2	1	0	1	1	158.548	-0.814555	-0.814545	0.157193	2	-0.0185631	39	23.6958	-0.000128041
2	1	0	1	1	158.948	-0.810556	-0.810568	0.154958	2	-0.0185004	39	24.0957	-0.000125604
2	1	0	0	1	159.348	-0.806557	-0.806564	0.151956	2	-0.0184388	39	24.4956	-0.000122562
2	1	0	0	1	159.748	-0.802557	-0.802559	0.148551	2	-0.0183785	39	24.8956	-0.000119221
2	1	0	1	1	160.147	-0.798557	-0.798573	0.143849	2	-0.0183198	39	25.2955	-0.000114874
2	1	0	1	1	160.547	-0.794559	-0.794557	0.138907	2	-0.0182631	39	25.6954	-0.000110369
2	1	0	1	1	160.947	-0.790559	-0.790567	0.133633	2	-0.0182083	39	26.0954	-0.000105646
2	1	0	0	1	161.347	-0.78656	-0.786575	0.128058	2	-0.0181558	39	26.4952	-0.000100727
2	1	0	0	1	161.747	-0.782561	-0.782566	0.122398	2	-0.0181055	39	26.8952	-9.57846e-05
2	1	0	0	1	162.147	-0.778561	-0.778568	0.11639	2	-0.0180576	39	27.2952	-9.06178e-05
2	1	0	1	1	162.547	-0.774562	-0.774566	0.110098	2	-0.0180121	39	27.695	-8.52783e-05
2	1	0	1	1	162.947	-0.770563	-0.770565	0.103882	2	-0.0179692	39	28.095	-8.00477e-05
2	1	0	1	1	163.347	-0.766564	-0.766565	0.0973944	2	-0.0179287	39	28.495	-7.46591e-05
2	1	0	0	1	163.747	-0.762564	-0.762571	0.0912831	2	-0.0178908	39	28.8948	-6.96099e-05
2	1	0	0	1	164.147	-0.758565	-0.758578	0.0849924	2	-0.0178554	39	29.2948	-6.44734e-05
2	1	0	0	1	164.547	-0.754566	-0.754567	0.0789862	2	-0.0178224	39	29.6948	-5.96004e-05
2	1	0	1	1	164.947	-0.750566	-0.750565	0.0732805	2	-0.0177918	39	30.0946	-5.50018e-05
2	1	0	1	1	165.347	-0.746567	-0.746594	0.067984	2	-0.0177634	39	30.4946	-5.07565e-05
2	1	0	1	1	165.746	-0.742569	-0.742607	0.0625189	2	-0.0177371	39	30.8945	-4.6427e-05
2	1	0	0	1	166.146	-0.738569	-0.7386	0.0576456	2	-0.0177129	39	31.2944	-4.25771e-05
2	1	0	0	1	166.546	-0.734569	-0.734581	0.0526304	2	-0.0176907	39	31.6944	-3.86613e-05
2	1	0	1	1	166.946	-0.730569	-0.730586	0.0481101	2	-0.0176705	39	32.0943	-3.51485e-05
2	1	0	1	1	167.346	-0.726571	-0.726579	0.0439387	2	-0.0176519	39	32.4942	-3.19249e-05
2	1	0	1	1	167.746	-0.722571	-0.722576	0.0399792	2	-0.0176351	39	32.8942	-2.8888e-05
2	1	0	0	1	168.146	-0.718572	-0.718611	0.0361883	2	-0.0176197	39	33.294	-2.60053e-05
2	1	0	0	1	168.546	-0.714573	-0.714581	0.0328561	2	-0.0176057	39	33.694	-2.34783e-05
2	1	0	0	1	168.946	-0.710574	-0.710586	0.0301675	2	-0.017593	39	34.094	-2.14367e-05
2	1	0	1	1	169.346	-0.706574	-0.70658	0.0271173	2	-0.0175814	39	34.4938	-1.91605e-05
2	1	0	1	1	169.746	-0.702575	-0.702591	0.0248754	2	-0.0175708	39	34.8938	-1.74773e-05
2	1	0	1	1	170.146	-0.698576	-0.698609	0.0226718	2	-0.0175611	39	35.2938	-1.58387e-05
2	1	0	0	1	170.546	-0.694576	-0.694587	0.0203497	2	-0.0175524	39	35.6936	-1.41346e-05
2	1	0	0	1	170.946	-0.690577	-0.690571	0.0187425	2	-0.0175444	39	36.0936	-1.2943e-05
2	1	0	0	1	171.346	-0.686578	-0.686608	0.0169493	2	-0.0175371	39	36.4936	-1.16375e-05
2	1	0	1	1	171.745	-0.682578	-0.682606	0.0156434	2	-0.0175304	39	36.8934	-1.06783e-05
2	1	0	1	1	172.145	-0.678579	-0.678615	0.0143933	2	-0.0175242	39	37.2934	-9.76752e-06
2	1	0	1	1	172.545	-0.67458	-0.674583	0.0133292	2	-0.0175185	39	37.6934	-8.99169e-06
2	1	0	0	1	172.945	-0.670581	-0.67059	0.0124376	2	-0.0175132	39	38.0932	-8.34051e-06
2	1	0	0	1	173.345	-0.666581	-0.666588	0.0116379	2	-0.0175082	39	38.4932	-7.75771e-06
2	1	0	1	1	173.745	-0.662581	-0.662601	0.0109051	2	-0.0175036	39	38.8931	-7.22573e-06
2	1	0	1	1	174.145	-0.658583	-0.658607	0.0102717	2	-0.0174992	39	39.293	-6.765e-06
2	1	0	1	1	174.545	-0.654583	-0.654606	0.00985833	2	-0.017495	39	39.693	-6.45333e-06
2	1	0	0	1	174.945	-0.650584	-0.650588	0.00935643	2	-0.017491	39	40.0928	-6.08718e-06
2	1	0	0	1	175.345	-0.646585	-0.646617	0.00883655	2	-0.0174872	39	40.4928	-5.71386e-06
2	1	0	0	1	175.745	-0.642585	-0.642605	0.00866032	2	-0.0174835	39	40.8928	-5.56517e-06
2	1	0	1	1	176.145	-0.638586	-0.638593	0.00818046	2	-0.01748	39	41.2926	-5.22398e-06
2	1	0	1	1	176.545	-0.634587	-0.634594	0.00790384	2	-0.0174766	39	41.6926	-5.01573e-06
2	1	0	1	1	176.945	-0.630588	-0.630617	0.00765536	2	-0.0174733	39	42.0926	-4.8276e-06
2	1	0	0	1	177.344	-0.626588	-0.6266	0.00763059	2	-0.0174701	39	42.4924	-4.78132e-06
2	1	0	0	1	177.744	-0.622589	-0.622585	0.00729114	2	-0.017467	39	42.8924	-4.53935e-06
2	1	0	0	1	178.144	-0.61859	-0.618605	0.00714081	2	-0.0174639	39	43.2924	-4.41734e-06
2	1	0	1	1	178.544	-0.61459	-0.614601	0.00685905	2	-0.0174609	39	43.6922	-4.21558e-06
2	1	0	1	1	178.944	-0.610591	-0.610608	0.00680418	2	-0.017458	39	44.0922	-4.15469e-06
2	1	0	1	1	179.344	-0.606592	-0.606593	0.00671196	2	-0.0174552	39	44.4922	-4.07143e-06
2	1	0	0	1	179.744	-0.602592	-0.602607	0.00656767	2	-0.0174524	39	44.892	-3.95773e-06
2	1	0	0	1	180.144	-0.598593	-0.598604	0.00640664	2	-0.0174496	39	45.292	-3.83504e-06
2	1	0	1	1	180.544	-0.594594	-0.594596	0.00629493	2	-0.0174469	39	45.6919	-3.74294e-06
2	1	0	1	1	180.944	-0.590595	-0.590626	0.00625286	2	-0.0174443	39	46.0918	-3.6931e-06
2	1	0	1	1	181.344	-0.586595	-0.58662	0.00595479	2	-0.0174416	39	46.4918	-3.4932e-06
2	1	0	0	1	181.744	-0.582596	-0.582628	0.00609009	2	-0.017439	39	46.8916	-3.54826e-06
2	1	0	0	1	182.144	-0.578597	-0.57863	0.00591734	2	-0.0174365	39	47.2916	-3.42395e-06
2	1	0	0	1	182.544	-0.574597	-0.574605	0.00583464	2	-0.0174339	39	47.6916	-3.35261e-06
2	1	0	1	1	182.943	-0.570598	-0.570607	0.00576353	2	-0.0174314	39	48.0914	-3.28871e-06
2	1	0	1	1	183.343	-0.566599	-0.56664	0.00572996	2	-0.017429	39	48.4914	-3.24683e-06
2	1	0	1	1	183.743	-0.5626	-0.562631	0.00575214	2	-0.0174265	39	48.8914	-3.23633e-06
2	1	0	0	1	184.143	-0.5586	-0.558617	0.00569238	2	-0.0174241	39	49.2912	-3.17986e-06
2	1	0	0	1	184.543	-0.554601	-0.554608	0.00559673	2	-0.0174216	39	49.6912	-3.10399e-06
2	1	0	0	1	184.943	-0.550602	-0.550629	0.00568384	2	-0.0174192	39	50.0912	-3.12969e-06
2	1	0	1	1	185.343	-0.546602	-0.54663	0.00560896	2	-0.0174168	39	50.491	-3.06603e-06
2	1	0	1	1	185.743	-0.542603	-0.542609	0.00553959	2	-0.0174144	39	50.891	-3.00583e-06
2	1	0	1	1	186.143	-0.538604	-0.538641	0.0054628	2	-0.0174121	39	51.291	-2.94249e-06
2	1	0	0	1	186.543	-0.534604	-0.534624	0.00544324	2	-0.0174098	39	51.6908	-2.91009e-06
2	1	0	0	1	186.943	-0.530605	-0.530642	0.00524295	2	-0.0174075	39	52.0908	-2.78213e-06
2	1	0	1	1	187.343	-0.526606	-0.526635	0.00526018	2	-0.0174052	39	52.4907	-2.7702e-06
2	1	0	1	1	187.743	-0.522607	-0.522629	0.00523043	2	-0.0174029	39	52.8906	-2.73358e-06
2	1	0	1	1	188.143	-0.518607	-0.51864	0.00522462	2	-0.0174006	39	53.2906	-2.7097e-06
2	1	0	0	1	188.542	-0.514608	-0.514654	0.00511798	2	-0.0173984	39	53.6904	-2.63399e-06
2	1	0	0	1	188.942	-0.510609	-0.510623	0.00522555	2	-0.0173962	39	54.0904	-2.66828e-06
2	1	0	0	1	189.342	-0.506609	-0.506638	0.00525394	2	-0.0173939	39	54.4904	-2.66185e-06
2	1	0	1	1	189.742	-0.50261	-0.502624	0.00518694	2	-0.0173917	39	54.8902	-2.60708e-06
2	1	0	1	1	190.142	-0.498611	-0.49865	0.00506492	2	-0.0173895	39	55.2902	-2.52562e-06
2	1	0	1	1	190.542	-0.494611	-0.494633	0.00517623	2	-0.0173873	39	55.6902	-2.56033e-06
2	1	0	0	1	190.942	-0.490612	-0.490622	0.00516724	2	-0.0173851	39	56.09	-2.53516e-06
2	1	0	0	1	191.342	-0.486613	-0.486635	0.00522634	2	-0.0173829	39	56.49	-2.54332e-06
2	1	0	0	1	191.742	-0.482614	-0.48263	0.0050572	2	-0.0173807	39	56.89	-2.44076e-06
2	1	0	1	1	192.142	-0.478614	-0.478633	0.00505516	2	-0.0173786	39	57.2898	-2.41956e-06
2	1	0	1	1	192.542	-0.474615	-0.474634	0.005076	2	-0.0173764	39	57.6898	-2.40924e-06
2	1	0	1	1	192.942	-0.470616	-0.470629	0.00509448	2	-0.0173743	39	58.0898	-2.39761e-06
2	1	0	0	1	193.342	-0.466616	-0.466644	0.00499435	2	-0.0173721	39	58.4896	-2.33058e-06
2	1	0	0	1	193.742	-0.462617	-0.462642	0.00497376	2	-0.0173699	39	58.8896	-2.30107e-06
2	1	0	1	1	194.141	-0.458618	-0.45864	0.00490927	2	-0.0173678	39	59.2895	-2.25159e-06
2	1	0	1	1	194.541	-0.454619	-0.454651	0.00487308	2	-0.0173657	39	59.6894	-2.21555e-06
2	1	0	1	1	194.941	-0.450619	-0.450646	0.00485364	2	-0.0173636	39	60.0894	-2.18727e-06
2	1	0	0	1	195.341	-0.44662	-0.446638	0.00485164	2	-0.0173615	39	60.4892	-2.16693e-06
2	1	0	0	1	195.741	-0.442621	-0.442637	0.00493542	2	-0.0173594	39	60.8892	-2.1846e-06
2	1	0	0	1	196.141	-0.438621	-0.438635	0.00480601	2	-0.0173573	39	61.2892	-2.10809e-06
2	1	0	1	1	196.541	-0.434622	-0.434641	0.00475289	2	-0.0173552	39	61.689	-2.0658e-06
2	1	0	1	1	196.941	-0.430623	-0.430638	0.00482536	2	-0.0173532	39	62.089	-2.07798e-06
2	1	0	1	1	197.341	-0.426624	-0.426634	0.00464734	2	-0.0173511	39	62.489	-1.98271e-06
2	1	0	0	1	197.741	-0.422624	-0.422658	0.00469731	2	-0.0173491	39	62.8888	-1.98536e-06
2	1	0	0	1	198.141	-0.418625	-0.418637	0.00462553	2	-0.017347	39	63.2888	-1.93642e-06
2	1	0	0	1	198.541	-0.414626	-0.414658	0.00478153	2	-0.017345	39	63.6888	-1.9827e-06
2	1	0	1	1	198.941	-0.410626	-0.410665	0.00479868	2	-0.0173429	39	64.0886	-1.97065e-06
2	1	0	1	1	199.341	-0.406627	-0.406653	0.00478041	2	-0.0173409	39	64.4886	-1.94397e-06
2	1	0	1	1	199.741	-0.402628	-0.402645	0.0047297	2	-0.0173388	39	64.8886	-1.90439e-06
2	1	0	0	1	200.14	-0.398628	-0.398646	0.00471127	2	-0.0173368	39	65.2884	-1.87813e-06
2	1	0	0	1	200.54	-0.394629	-0.394637	0.00470001	2	-0.0173347	39	65.6884	-1.8548e-06
2	1	0	1	1	200.94	-0.390631	-0.390649	0.00470813	2	-0.0173327	39	66.0883	-1.83922e-06
2	1	0	1	1	201.34	-0.386631	-0.386642	0.00474934	2	-0.0173306	39	66.4882	-1.83629e-06
2	1	0	1	1	201.74	-0.382631	-0.382636	0.00472118	2	-0.0173286	39	66.8882	-1.80649e-06
2	1	0	1	1	202.14	-0.378631	-0.378653	0.0046956	2	-0.0173266	39	67.2881	-1.778e-06
2	1	0	0	1	202.54	-0.374633	-0.374636	0.00468668	2	-0.0173246	39	67.688	-1.7558e-06
2	1	0	0	1	202.94	-0.370633	-0.37065	0.00469099	2	-0.0173226	39	68.088	-1.73872e-06
2	1	0	1	1	203.34	-0.366634	-0.366637	0.00473223	2	-0.0173206	39	68.4878	-1.73501e-06
2	1	0	1	1	203.74	-0.362635	-0.36263	0.00470801	2	-0.0173186	39	68.8878	-1.70726e-06
2	1	0	1	1	204.14	-0.358635	-0.35864	0.00462971	2	-0.0173166	39	69.2878	-1.6604e-06
2	1	0	0	1	204.54	-0.354636	-0.354648	0.00460657	2	-0.0173146	39	69.6876	-1.63371e-06
2	1	0	0	1	204.94	-0.350637	-0.350642	0.00458533	2	-0.0173126	39	70.0876	-1.60781e-06
2	1	0	0	1	205.34	-0.346638	-0.346672	0.0045699	2	-0.0173106	39	70.4876	-1.58425e-06
2	1	0	1	1	205.739	-0.342638	-0.342626	0.00467482	2	-0.0173086	39	70.8874	-1.60171e-06
2	1	0	1	1	206.139	-0.338639	-0.33863	0.0045978	2	-0.0173066	39	71.2874	-1.55695e-06
2	1	0	1	1	206.539	-0.33464	-0.334642	0.00469778	2	-0.0173047	39	71.6874	-1.57208e-06
2	1	0	0	1	206.939	-0.33064	-0.33064	0.00462797	2	-0.0173027	39	72.0872	-1.53019e-06
2	1	0	0	1	207.339	-0.326641	-0.326666	0.00447853	2	-0.0173007	39	72.4872	-1.46298e-06
2	1	0	0	1	207.739	-0.322642	-0.322647	0.0045975	2	-0.0172987	39	72.8872	-1.48337e-06
2	1	0	1	1	208.139	-0.318642	-0.318649	0.00449049	2	-0.0172968	39	73.287	-1.43089e-06
2	1	0	1	1	208.539	-0.314643	-0.314653	0.00456915	2	-0.0172948	39	73.687	-1.4377e-06
2	1	0	1	1	208.939	-0.310643	-0.310652	0.00459023	2	-0.0172928	39	74.0869	-1.42596e-06
2	1	0	0	1	209.339	-0.306645	-0.306667	0.00451706	2	-0.0172908	39	74.4868	-1.38524e-06
2	1	0	0	1	209.739	-0.302645	-0.302679	0.00455169	2	-0.0172888	39	74.8868	-1.3777e-06
2	1	0	0	1	210.004	-0.299996	-0.299976	0.00401021	2	-0.0172875	39	75.1522	-1.20297e-06
2	1	0	0	1	210.359	-0.303545	-0.303576	0.0040635	2	-0.0172862	39	75.5072	-1.23358e-06
2	1	0	0	1	210.759	-0.307544	-0.307554	0.00392575	2	-0.0172847	39	75.9072	-1.20738e-06
2	1	0	1	1	211.159	-0.311544	-0.311548	0.00384602	2	-0.0172833	39	76.307	-1.19822e-06
2	1	0	1	1	211.559	-0.315543	-0.315548	0.00373364	2	-0.0172819	39	76.707	-1.17814e-06
2	1	0	1	1	211.959	-0.319542	-0.319567	0.00353979	2	-0.0172806	39	77.107	-1.1312e-06
2	1	0	0	1	212.359	-0.323542	-0.323559	0.00351778	2	-0.0172793	39	77.5068	-1.13821e-06
2	1	0	0	1	212.759	-0.327541	-0.32758	0.003358	2	-0.0172781	39	77.9068	-1.10001e-06
2	1	0	0	1	213.159	-0.33154	-0.33156	0.00333964	2	-0.0172769	39	78.3068	-1.10729e-06
2	1	0	1	1	213.529	-0.33524	-0.335248	0.00326726	2	-0.0172758	39	78.6766	-1.09534e-06
2	1	0	1	1	213.55	-0.335489	-0.335466	0.00252659	2	-0.0172758	39	78.6976	-8.47585e-07