File: Fig 3/Fig 3_RRDE-np-Fe2O3_500mvs_disk.mpt
mode	ox/red	error	control changes	Ns changes	counter inc.	Ns	time/s	control/V	Ewe/V	<I>/mA	dQ/C	(Q-Qo)/C	I Range	Q charge/discharge/mA.h	half cycle	Energy charge/W.h	Energy discharge/W.h	Capacitance charge/µF	Capacitance discharge/µF	step time/s	Q discharge/mA.h	Q charge/mA.h	Capacity/mA.h	Efficiency/%	cycle number	P/W
2	1	1	0	0	0	0	0.2468	-0.299969	-0.458048	-0.249953	-6.16883e-05	-6.16883e-05	41	-1.71356e-05	0	0.000000000000000E+000	7.84894e-09	0.000000000000000E+000	0.000000000000000E+000	0.2468	1.71356e-05	0.000000000000000E+000	1.71356e-05	0.0000000E+000	0.000000000000000E+000	0.00011449
2	1	1	0	0	0	0	0.3698	-0.299969	-0.296289	0.0577731	-5.45822e-05	-5.45822e-05	41	1.97391e-06	2	5.84849e-10	0.000000000000000E+000	0.000000000000000E+000	0.000000000000000E+000	0.000000000000000E+000	0.000000000000000E+000	1.97391e-06	1.97391e-06	0.0000000E+000	1	-1.71175e-05
2	1	1	0	0	0	0	0.4698	-0.299969	-0.300384	0.199434	-3.46388e-05	-3.46388e-05	41	7.51375e-06	2	2.24893e-09	0.000000000000000E+000	6606.43	0.000000000000000E+000	0.1	0.000000000000000E+000	7.51375e-06	7.51375e-06	0.0000000E+000	1	-5.99068e-05
2	1	0	0	0	0	0	0.5698	-0.299969	-0.300357	0.0788524	-2.67536e-05	-2.67536e-05	41	9.7041e-06	2	2.90681e-09	0.000000000000000E+000	8588.23	0.000000000000000E+000	0.2	0.000000000000000E+000	9.7041e-06	9.7041e-06	0.0000000E+000	1	-2.36839e-05
2	1	0	0	0	0	0	0.6698	-0.299969	-0.30038	0.0386512	-2.28884e-05	-2.28884e-05	41	1.07777e-05	2	3.22931e-09	0.000000000000000E+000	9485.11	0.000000000000000E+000	0.3	0.000000000000000E+000	1.07777e-05	1.07777e-05	0.0000000E+000	1	-1.161e-05
2	1	0	0	0	0	0	0.7698	-0.299969	-0.300322	0.0214259	-2.07458e-05	-2.07458e-05	41	1.13729e-05	2	3.40805e-09	0.000000000000000E+000	10151.2	0.000000000000000E+000	0.4	0.000000000000000E+000	1.13729e-05	1.13729e-05	0.0000000E+000	1	-6.43467e-06
2	1	0	0	0	0	0	0.8698	-0.299969	-0.300334	0.012398	-1.9506e-05	-1.9506e-05	41	1.17173e-05	2	3.51148e-09	0.000000000000000E+000	10428.8	0.000000000000000E+000	0.5	0.000000000000000E+000	1.17173e-05	1.17173e-05	0.0000000E+000	1	-3.72353e-06
2	1	0	0	0	0	0	0.9698	-0.299969	-0.300326	0.00705923	-1.88001e-05	-1.88001e-05	41	1.19134e-05	2	3.57038e-09	0.000000000000000E+000	10623.4	0.000000000000000E+000	0.6	0.000000000000000E+000	1.19134e-05	1.19134e-05	0.0000000E+000	1	-2.12007e-06
2	1	0	0	0	0	0	1.0698	-0.299969	-0.300334	0.00364026	-1.84361e-05	-1.84361e-05	41	1.20145e-05	2	3.60075e-09	0.000000000000000E+000	10693.4	0.000000000000000E+000	0.7	0.000000000000000E+000	1.20145e-05	1.20145e-05	0.0000000E+000	1	-1.09329e-06
2	1	0	0	0	0	0	1.1698	-0.299969	-0.300338	0.00130901	-1.83052e-05	-1.83052e-05	41	1.20509e-05	2	3.61167e-09	0.000000000000000E+000	10715.7	0.000000000000000E+000	0.8	0.000000000000000E+000	1.20509e-05	1.20509e-05	0.0000000E+000	1	-3.93145e-07
2	0	0	0	0	0	0	1.2698	-0.299969	-0.300365	-0.00035434	-1.83406e-05	-1.83406e-05	41	-9.84277e-09	3	3.61167e-09	2.95641e-12	10715.7	0.000000000000000E+000	0.000000000000000E+000	9.84277e-09	0.000000000000000E+000	9.84277e-09	0.0000000E+000	1	1.06431e-07
2	0	0	0	0	0	0	1.3698	-0.299969	-0.300307	-0.00158072	-1.84987e-05	-1.84987e-05	41	-5.37517e-08	3	3.61167e-09	1.61426e-11	10715.7	3372.98	0.1	5.37517e-08	0.000000000000000E+000	5.37517e-08	0.0000000E+000	1	4.74702e-07
2	0	0	0	0	0	0	1.4698	-0.299969	-0.300307	-0.0024865	-1.87474e-05	-1.87474e-05	41	-1.22821e-07	3	3.61167e-09	3.68847e-11	10715.7	7699.16	0.2	1.22821e-07	0.000000000000000E+000	1.22821e-07	0.0000000E+000	1	7.46713e-07
2	0	0	0	0	0	0	1.5698	-0.299969	-0.300326	-0.00300259	-1.90476e-05	-1.90476e-05	41	-2.06226e-07	3	3.61167e-09	6.19334e-11	10715.7	19416.5	0.3	2.06226e-07	0.000000000000000E+000	2.06226e-07	0.0000000E+000	1	9.01757e-07
2	0	0	0	0	0	0	1.6698	-0.299969	-0.300349	-0.00307128	-1.93547e-05	-1.93547e-05	41	-2.9154e-07	3	3.61167e-09	8.75573e-11	10715.7	68515.2	0.4	2.9154e-07	0.000000000000000E+000	2.9154e-07	0.0000000E+000	1	9.22457e-07
2	1	0	0	0	0	0	1.7698	-0.299969	-0.30038	-0.000450802	-1.93998e-05	-1.93998e-05	41	-3.04062e-07	3	3.61167e-09	9.13187e-11	10715.7	71597.4	0.5	3.04062e-07	0.000000000000000E+000	3.04062e-07	2.52316	1	1.35412e-07
2	1	0	0	0	0	0	1.8698	-0.299969	-0.300288	0.00903346	-1.84965e-05	-1.84965e-05	41	2.50929e-07	4	7.53512e-11	0.000000000000000E+000	0.000000000000000E+000	0.000000000000000E+000	0.000000000000000E+000	0.000000000000000E+000	2.50929e-07	2.50929e-07	0.0000000E+000	2	-2.71264e-06
2	1	0	0	0	0	0	1.9698	-0.299969	-0.300345	0.0239498	-1.61015e-05	-1.61015e-05	41	9.16203e-07	4	2.75163e-10	0.000000000000000E+000	57582.5	0.000000000000000E+000	0.1	0.000000000000000E+000	9.16203e-07	9.16203e-07	0.0000000E+000	2	-7.19322e-06
2	1	0	0	0	0	0	2.0698	-0.299969	-0.300357	0.042266	-1.18749e-05	-1.18749e-05	41	2.09026e-06	4	6.27799e-10	0.000000000000000E+000	109400	0.000000000000000E+000	0.2	0.000000000000000E+000	2.09026e-06	2.09026e-06	0.0000000E+000	2	-1.26949e-05
2	1	0	0	0	0	0	2.1698	-0.299969	-0.30033	0.0427259	-7.6023e-06	-7.6023e-06	41	3.27709e-06	4	9.8424e-10	0.000000000000000E+000	280552	0.000000000000000E+000	0.3	0.000000000000000E+000	3.27709e-06	3.27709e-06	0.0000000E+000	2	-1.28319e-05
2	1	0	0	0	0	0	2.2698	-0.299969	-0.300334	0.0249286	-5.10944e-06	-5.10944e-06	41	3.96955e-06	4	1.19221e-09	0.000000000000000E+000	311570	0.000000000000000E+000	0.4	0.000000000000000E+000	3.96955e-06	3.96955e-06	0.0000000E+000	2	-7.48689e-06
2	1	0	0	0	0	0	2.3698	-0.299969	-0.300303	0.0116618	-3.94326e-06	-3.94326e-06	41	4.29349e-06	4	1.28949e-09	0.000000000000000E+000	1.01494e+06	0.000000000000000E+000	0.5	0.000000000000000E+000	4.29349e-06	4.29349e-06	0.0000000E+000	2	-3.50209e-06
2	1	0	0	0	0	0	2.4698	-0.299969	-0.30038	0.00512082	-3.43117e-06	-3.43117e-06	41	4.43574e-06	4	1.33222e-09	0.000000000000000E+000	174137	0.000000000000000E+000	0.6	0.000000000000000E+000	4.43574e-06	4.43574e-06	0.0000000E+000	2	-1.53819e-06
2	1	0	0	0	0	0	2.5698	-0.299969	-0.300334	0.0013401	-3.29716e-06	-3.29716e-06	41	4.47296e-06	4	1.3434e-09	0.000000000000000E+000	351311	0.000000000000000E+000	0.7	0.000000000000000E+000	4.47296e-06	4.47296e-06	0.0000000E+000	2	-4.02476e-07
2	0	0	0	0	0	0	2.6698	-0.299969	-0.300345	-0.00133545	-3.43071e-06	-3.43071e-06	41	-3.70959e-08	5	1.3434e-09	1.11416e-11	351311	0.000000000000000E+000	0.000000000000000E+000	3.70959e-08	0.000000000000000E+000	3.70959e-08	0.0000000E+000	2	4.01097e-07
2	0	0	0	0	0	0	2.7698	-0.299969	-0.300292	-0.00300658	-3.73137e-06	-3.73137e-06	41	-1.20612e-07	5	1.3434e-09	3.62208e-11	351311	8112.16	0.1	1.20612e-07	0.000000000000000E+000	1.20612e-07	0.0000000E+000	2	9.02851e-07
2	0	0	0	0	0	0	2.8698	-0.299969	-0.300357	-0.00394999	-4.12637e-06	-4.12637e-06	41	-2.30334e-07	5	1.3434e-09	6.91766e-11	351311	72456.8	0.2	2.30334e-07	0.000000000000000E+000	2.30334e-07	0.0000000E+000	2	1.18641e-06
2	0	0	0	0	0	0	2.9698	-0.299969	-0.300384	-0.00379572	-4.50594e-06	-4.50594e-06	41	-3.35771e-07	5	1.3434e-09	1.00848e-10	351311	31662.6	0.3	3.35771e-07	0.000000000000000E+000	3.35771e-07	0.0000000E+000	2	1.14017e-06
2	0	0	0	0	0	0	3.0698	-0.299969	-0.300364	-0.00247956	-4.7539e-06	-4.7539e-06	41	-4.04647e-07	5	1.3434e-09	1.21536e-10	351311	76494.2	0.4	4.04647e-07	0.000000000000000E+000	4.04647e-07	9.04652	2	7.44772e-07
2	1	0	0	0	0	0	3.1698	-0.299969	-0.30038	0.00083533	-4.67036e-06	-4.67036e-06	41	2.32036e-08	6	6.9699e-12	0.000000000000000E+000	0.000000000000000E+000	0.000000000000000E+000	0.000000000000000E+000	0.000000000000000E+000	2.32036e-08	2.32036e-08	0.0000000E+000	3	-2.50916e-07
2	1	0	0	0	0	0	3.2698	-0.299969	-0.300384	0.00456044	-4.21432e-06	-4.21432e-06	41	1.49883e-07	6	4.50222e-11	0.000000000000000E+000	141447	0.000000000000000E+000	0.1	0.000000000000000E+000	1.49883e-07	1.49883e-07	0.0000000E+000	3	-1.36988e-06
2	1	0	0	0	0	0	3.3698	-0.299969	-0.300315	0.00679248	-3.53507e-06	-3.53507e-06	41	3.38562e-07	6	1.01686e-10	0.000000000000000E+000	18742.9	0.000000000000000E+000	0.2	0.000000000000000E+000	3.38562e-07	3.38562e-07	0.0000000E+000	3	-2.03988e-06
2	1	0	0	0	0	0	3.4698	-0.299969	-0.300403	0.00559454	-2.97562e-06	-2.97562e-06	41	4.93966e-07	6	1.48369e-10	0.000000000000000E+000	77593.2	0.000000000000000E+000	0.3	0.000000000000000E+000	4.93966e-07	4.93966e-07	0.0000000E+000	3	-1.68062e-06
2	1	0	0	0	0	0	3.5698	-0.299969	-0.300303	0.00210798	-2.76482e-06	-2.76482e-06	41	5.52521e-07	6	1.65954e-10	0.000000000000000E+000	26020.4	0.000000000000000E+000	0.4	0.000000000000000E+000	5.52521e-07	5.52521e-07	0.0000000E+000	3	-6.33035e-07
2	0	0	0	0	0	0	3.6698	-0.299969	-0.300307	-0.00113182	-2.878e-06	-2.878e-06	41	-3.14394e-08	7	1.65954e-10	9.44148e-12	26020.4	0.000000000000000E+000	0.000000000000000E+000	3.14394e-08	0.000000000000000E+000	3.14394e-08	0.0000000E+000	3	3.39893e-07
2	0	0	0	0	0	0	3.7698	-0.299969	-0.30033	-0.00299603	-3.1776e-06	-3.1776e-06	41	-1.14663e-07	7	1.65954e-10	3.44359e-11	26020.4	17941.4	0.1	1.14663e-07	0.000000000000000E+000	1.14663e-07	0.0000000E+000	3	8.99799e-07
2	0	0	0	0	0	0	3.8698	-0.299969	-0.300303	-0.00351869	-3.52947e-06	-3.52947e-06	41	-2.12404e-07	7	1.65954e-10	6.3788e-11	26020.4	205260	0.2	2.12404e-07	0.000000000000000E+000	2.12404e-07	0.0000000E+000	3	1.05667e-06
2	0	0	0	0	0	0	3.9698	-0.299969	-0.300368	-0.00382205	-3.91168e-06	-3.91168e-06	41	-3.18572e-07	7	1.65954e-10	9.56775e-11	26020.4	18726.1	0.3	3.18572e-07	0.000000000000000E+000	3.18572e-07	0.0000000E+000	3	1.14802e-06
2	0	0	0	0	0	0	4.0698	-0.299969	-0.300303	-0.00402117	-4.31379e-06	-4.31379e-06	41	-4.30271e-07	7	1.65954e-10	1.29221e-10	26020.4	406055	0.4	4.30271e-07	0.000000000000000E+000	4.30271e-07	0.0000000E+000	3	1.20757e-06
2	0	0	0	0	0	0	4.1698	-0.299969	-0.300319	-0.00417905	-4.7317e-06	-4.7317e-06	41	-5.46356e-07	7	1.65954e-10	1.64083e-10	26020.4	170978	0.5	5.46356e-07	0.000000000000000E+000	5.46356e-07	0.0000000E+000	3	1.25505e-06
2	0	0	0	0	0	0	4.2698	-0.299969	-0.300334	-0.00411534	-5.14323e-06	-5.14323e-06	41	-6.60671e-07	7	1.65954e-10	1.98416e-10	26020.4	88673.7	0.6	6.60671e-07	0.000000000000000E+000	6.60671e-07	0.0000000E+000	3	1.23598e-06
2	0	0	0	0	0	0	4.3698	-0.299969	-0.300353	-0.00416732	-5.55996e-06	-5.55996e-06	41	-7.76429e-07	7	1.65954e-10	2.33185e-10	26020.4	60862.8	0.7	7.76429e-07	0.000000000000000E+000	7.76429e-07	0.0000000E+000	3	1.25167e-06
2	0	0	0	0	0	0	4.4698	-0.299969	-0.300322	-0.00428495	-5.98846e-06	-5.98846e-06	41	-8.95456e-07	7	1.65954e-10	2.68931e-10	26020.4	210443	0.8	8.95456e-07	0.000000000000000E+000	8.95456e-07	0.0000000E+000	3	1.28687e-06
2	0	0	0	0	0	0	4.5698	-0.299969	-0.300315	-0.00434844	-6.4233e-06	-6.4233e-06	41	-1.01625e-06	7	1.65954e-10	3.05206e-10	26020.4	475808	0.9	1.01625e-06	0.000000000000000E+000	1.01625e-06	0.0000000E+000	3	1.3059e-06
2	0	0	0	0	0	0	4.6698	-0.299969	-0.300338	-0.00431667	-6.85497e-06	-6.85497e-06	41	-1.13615e-06	7	1.65954e-10	3.41219e-10	26020.4	133635	1	1.13615e-06	0.000000000000000E+000	1.13615e-06	0.0000000E+000	3	1.29646e-06
2	0	0	0	0	0	0	4.7698	-0.299969	-0.300353	-0.00437916	-7.29289e-06	-7.29289e-06	41	-1.2578e-06	7	1.65954e-10	3.77755e-10	26020.4	98596.2	1.1	1.2578e-06	0.000000000000000E+000	1.2578e-06	0.0000000E+000	3	1.31529e-06
2	0	0	0	0	0	0	4.8698	-0.299969	-0.300338	-0.00447847	-7.74073e-06	-7.74073e-06	41	-1.3822e-06	7	1.65954e-10	4.15117e-10	26020.4	162575	1.2	1.3822e-06	0.000000000000000E+000	1.3822e-06	0.0000000E+000	3	1.34505e-06
2	0	0	0	0	0	0	4.9698	-0.299969	-0.300315	-0.00457108	-8.19784e-06	-8.19784e-06	41	-1.50917e-06	7	1.65954e-10	4.5325e-10	26020.4	706597	1.3	1.50917e-06	0.000000000000000E+000	1.50917e-06	0.0000000E+000	3	1.37276e-06
2	0	0	0	0	0	0	5.0698	-0.299969	-0.300311	-0.00453006	-8.65085e-06	-8.65085e-06	41	-1.63501e-06	7	1.65954e-10	4.91039e-10	26020.4	1.51925e+06	1.4	1.63501e-06	0.000000000000000E+000	1.63501e-06	0.0000000E+000	3	1.36043e-06
2	0	0	0	0	0	0	5.1698	-0.299969	-0.300326	-0.00453567	-9.10441e-06	-9.10441e-06	41	-1.761e-06	7	1.65954e-10	5.28878e-10	26020.4	330313	1.5	1.761e-06	0.000000000000000E+000	1.761e-06	0.0000000E+000	3	1.36218e-06
2	0	0	0	0	0	0	5.2698	-0.299969	-0.300342	-0.00458862	-9.56327e-06	-9.56327e-06	41	-1.88846e-06	7	1.65954e-10	5.6716e-10	26020.4	196993	1.6	1.88846e-06	0.000000000000000E+000	1.88846e-06	0.0000000E+000	3	1.37815e-06
2	0	0	0	0	0	0	5.3698	-0.299969	-0.300319	-0.00453127	-1.00164e-05	-1.00164e-05	41	-2.01433e-06	7	1.65954e-10	6.0496e-10	26020.4	627121	1.7	2.01433e-06	0.000000000000000E+000	2.01433e-06	0.0000000E+000	3	1.36083e-06
2	0	0	0	0	0	0	5.4698	-0.299969	-0.300323	-0.0044809	-1.04645e-05	-1.04645e-05	41	-2.1388e-06	7	1.65954e-10	6.42341e-10	26020.4	500694	1.8	2.1388e-06	0.000000000000000E+000	2.1388e-06	0.0000000E+000	3	1.34571e-06
2	0	0	0	0	0	0	5.5698	-0.299969	-0.300303	-0.00380114	-1.08446e-05	-1.08446e-05	41	-2.24439e-06	7	1.65954e-10	6.7405e-10	26020.4	2.11807e+06	1.9	2.24439e-06	0.000000000000000E+000	2.24439e-06	0.0000000E+000	3	1.14149e-06
2	0	0	0	0	0	0	5.6698	-0.299969	-0.300315	-0.00201175	-1.10458e-05	-1.10458e-05	41	-2.30027e-06	7	1.65954e-10	6.90832e-10	26020.4	1.07699e+06	2	2.30027e-06	0.000000000000000E+000	2.30027e-06	416.322	3	6.04159e-07
2	1	0	0	0	0	0	5.7698	-0.299969	-0.300323	0.0019257	-1.08532e-05	-1.08532e-05	41	5.34916e-08	8	1.60648e-11	0.000000000000000E+000	0.000000000000000E+000	0.000000000000000E+000	0.000000000000000E+000	0.000000000000000E+000	5.34916e-08	5.34916e-08	0.0000000E+000	4	-5.78331e-07
2	1	0	0	0	0	0	5.8698	-0.299969	-0.300357	0.00819802	-1.00334e-05	-1.00334e-05	41	2.81214e-07	8	8.44628e-11	0.000000000000000E+000	29461.9	0.000000000000000E+000	0.1	0.000000000000000E+000	2.81214e-07	2.81214e-07	0.0000000E+000	4	-2.46233e-06
2	1	0	0	0	0	0	5.9698	-0.299969	-0.300277	0.017311	-8.30231e-06	-8.30231e-06	41	7.62075e-07	8	2.28854e-10	0.000000000000000E+000	59737.5	0.000000000000000E+000	0.2	0.000000000000000E+000	7.62075e-07	7.62075e-07	0.0000000E+000	4	-5.19808e-06
2	1	0	0	0	0	0	6.0698	-0.299969	-0.300303	0.0213431	-6.168e-06	-6.168e-06	41	1.35494e-06	8	4.06893e-10	0.000000000000000E+000	255337	0.000000000000000E+000	0.3	0.000000000000000E+000	1.35494e-06	1.35494e-06	0.0000000E+000	4	-6.40942e-06
2	1	0	0	0	0	0	6.1698	-0.299969	-0.300334	0.0155045	-4.61755e-06	-4.61755e-06	41	1.78562e-06	8	5.36241e-10	0.000000000000000E+000	563174	0.000000000000000E+000	0.4	0.000000000000000E+000	1.78562e-06	1.78562e-06	0.0000000E+000	4	-4.65652e-06
2	1	0	0	0	0	0	6.2698	-0.299969	-0.300353	0.00918874	-3.69868e-06	-3.69868e-06	41	2.04086e-06	8	6.12904e-10	0.000000000000000E+000	240515	0.000000000000000E+000	0.5	0.000000000000000E+000	2.04086e-06	2.04086e-06	0.0000000E+000	4	-2.75987e-06
2	0	0	0	0	0	0	6.3698	-0.299969	-0.300326	0.00192658	-3.50602e-06	-3.50602e-06	41	2.09438e-06	8	6.28976e-10	0.000000000000000E+000	2.00788e+06	0.000000000000000E+000	0.6	0.000000000000000E+000	2.09438e-06	2.09438e-06	0.0000000E+000	4	-5.78602e-07
2	0	0	0	0	0	0	6.4698	-0.299969	-0.300334	-0.00386927	-3.89295e-06	-3.89295e-06	41	-1.0748e-07	9	6.28976e-10	3.22798e-11	2.00788e+06	0.000000000000000E+000	0.000000000000000E+000	1.0748e-07	0.000000000000000E+000	1.0748e-07	0.0000000E+000	4	1.16207e-06
2	0	0	0	0	0	0	6.5698	-0.299969	-0.300372	-0.00355441	-4.24839e-06	-4.24839e-06	41	-2.06213e-07	9	6.28976e-10	6.19367e-11	2.00788e+06	19415.2	0.1	2.06213e-07	0.000000000000000E+000	2.06213e-07	0.0000000E+000	4	1.06765e-06
2	0	0	0	0	0	0	6.6698	-0.299969	-0.300311	-0.00311163	-4.55955e-06	-4.55955e-06	41	-2.92647e-07	9	6.28976e-10	8.78937e-11	2.00788e+06	45969.6	0.2	2.92647e-07	0.000000000000000E+000	2.92647e-07	0.0000000E+000	4	9.34456e-07
2	0	0	0	0	0	0	6.7698	-0.299969	-0.3003	-0.00319607	-4.87916e-06	-4.87916e-06	41	-3.81427e-07	9	6.28976e-10	1.14554e-10	2.00788e+06	39891.7	0.3	3.81427e-07	0.000000000000000E+000	3.81427e-07	0.0000000E+000	4	9.59779e-07
2	0	0	0	0	0	0	6.8698	-0.299969	-0.30028	-0.00349616	-5.22877e-06	-5.22877e-06	41	-4.78543e-07	9	6.28976e-10	1.43716e-10	2.00788e+06	32186	0.4	4.78543e-07	0.000000000000000E+000	4.78543e-07	0.0000000E+000	4	1.04983e-06
2	0	0	0	0	0	0	6.9698	-0.299969	-0.300353	-0.00390857	-5.61963e-06	-5.61963e-06	41	-5.87114e-07	9	6.28976e-10	1.76326e-10	2.00788e+06	110469	0.5	5.87114e-07	0.000000000000000E+000	5.87114e-07	0.0000000E+000	4	1.17395e-06
2	0	0	0	0	0	0	7.0698	-0.299969	-0.300315	-0.0042526	-6.04489e-06	-6.04489e-06	41	-7.05242e-07	9	6.28976e-10	2.11802e-10	2.00788e+06	132902	0.6	7.05242e-07	0.000000000000000E+000	7.05242e-07	0.0000000E+000	4	1.27712e-06
2	0	0	0	0	0	0	7.1698	-0.299969	-0.300342	-0.00397647	-6.44254e-06	-6.44254e-06	41	-8.15699e-07	9	6.28976e-10	2.44976e-10	2.00788e+06	384895	0.7	8.15699e-07	0.000000000000000E+000	8.15699e-07	0.0000000E+000	4	1.1943e-06
2	0	0	0	0	0	0	7.2698	-0.299969	-0.300403	-0.00332465	-6.775e-06	-6.775e-06	41	-9.08051e-07	9	6.28976e-10	2.72719e-10	2.00788e+06	47484.4	0.8	9.08051e-07	0.000000000000000E+000	9.08051e-07	0.0000000E+000	4	9.98735e-07
2	1	0	0	0	0	0	7.3698	-0.299969	-0.300311	-0.0009614	-6.87114e-06	-6.87114e-06	41	-9.34757e-07	9	6.28976e-10	2.80739e-10	2.00788e+06	146833	0.9	9.34757e-07	0.000000000000000E+000	9.34757e-07	44.6317	4	2.88719e-07
2	1	0	0	0	0	0	7.4698	-0.299969	-0.300357	0.00227833	-6.64331e-06	-6.64331e-06	41	6.3287e-08	10	1.90087e-11	0.000000000000000E+000	0.000000000000000E+000	0.000000000000000E+000	0.000000000000000E+000	0.000000000000000E+000	6.3287e-08	6.3287e-08	0.0000000E+000	5	-6.84313e-07
2	1	0	0	0	0	0	7.5698	-0.299969	-0.300326	0.00494756	-6.14855e-06	-6.14855e-06	41	2.00719e-07	10	6.02832e-11	0.000000000000000E+000	23608.6	0.000000000000000E+000	0.1	0.000000000000000E+000	2.00719e-07	2.00719e-07	0.0000000E+000	5	-1.48588e-06
2	1	0	0	0	0	0	7.6698	-0.299969	-0.300322	0.00518564	-5.62999e-06	-5.62999e-06	41	3.44765e-07	10	1.03543e-10	0.000000000000000E+000	35995	0.000000000000000E+000	0.2	0.000000000000000E+000	3.44765e-07	3.44765e-07	0.0000000E+000	5	-1.55737e-06
2	1	0	0	0	0	0	7.7698	-0.299969	-0.3003	0.00334227	-5.29576e-06	-5.29576e-06	41	4.37606e-07	10	1.31423e-10	0.000000000000000E+000	27446	0.000000000000000E+000	0.3	0.000000000000000E+000	4.37606e-07	4.37606e-07	0.0000000E+000	5	-1.00368e-06
2	1	0	0	0	0	0	7.8698	-0.299969	-0.300277	0.00105726	-5.19004e-06	-5.19004e-06	41	4.66974e-07	10	1.40242e-10	0.000000000000000E+000	20923.1	0.000000000000000E+000	0.4	0.000000000000000E+000	4.66974e-07	4.66974e-07	0.0000000E+000	5	-3.1747e-07
2	0	0	0	0	0	0	7.9698	-0.299969	-0.300326	-0.000727076	-5.26275e-06	-5.26275e-06	41	-2.01966e-08	11	1.40242e-10	6.06557e-12	20923.1	0.000000000000000E+000	0.000000000000000E+000	2.01966e-08	0.000000000000000E+000	2.01966e-08	0.0000000E+000	5	2.1836e-07
2	0	0	0	0	0	0	8.0698	-0.299969	-0.300357	-0.00180082	-5.44283e-06	-5.44283e-06	41	-7.02193e-08	11	1.40242e-10	2.10903e-11	20923.1	8283.41	0.1	7.02193e-08	0.000000000000000E+000	7.02193e-08	0.0000000E+000	5	5.40889e-07
2	0	0	0	0	0	0	8.1698	-0.299969	-0.300342	-0.00235903	-5.67873e-06	-5.67873e-06	41	-1.35748e-07	11	1.40242e-10	4.07712e-11	20923.1	31964.5	0.2	1.35748e-07	0.000000000000000E+000	1.35748e-07	0.0000000E+000	5	7.08514e-07
2	0	0	0	0	0	0	8.2698	-0.299969	-0.300342	-0.002673	-5.94603e-06	-5.94603e-06	41	-2.09998e-07	11	1.40242e-10	6.30716e-11	20923.1	49641.7	0.3	2.09998e-07	0.000000000000000E+000	2.09998e-07	0.0000000E+000	5	8.02814e-07
2	0	0	0	0	0	0	8.3698	-0.299969	-0.300334	-0.00283092	-6.22912e-06	-6.22912e-06	41	-2.88635e-07	11	1.40242e-10	8.66889e-11	20923.1	136195	0.4	2.88635e-07	0.000000000000000E+000	2.88635e-07	0.0000000E+000	5	8.50222e-07
2	0	0	0	0	0	0	8.4698	-0.299969	-0.300338	-0.00283889	-6.51301e-06	-6.51301e-06	41	-3.67493e-07	11	1.40242e-10	1.10373e-10	20923.1	115905	0.5	3.67493e-07	0.000000000000000E+000	3.67493e-07	0.0000000E+000	5	8.52626e-07
2	0	0	0	0	0	0	8.5698	-0.299969	-0.300315	-0.00291519	-6.80453e-06	-6.80453e-06	41	-4.4847e-07	11	1.40242e-10	1.34692e-10	20923.1	140346	0.6	4.4847e-07	0.000000000000000E+000	4.4847e-07	0.0000000E+000	5	8.75476e-07
2	0	0	0	0	0	0	8.6698	-0.299969	-0.300311	-0.00299499	-7.10403e-06	-7.10403e-06	41	-5.31665e-07	11	1.40242e-10	1.59676e-10	20923.1	124947	0.7	5.31665e-07	0.000000000000000E+000	5.31665e-07	0.0000000E+000	5	8.99429e-07
2	0	0	0	0	0	0	8.7698	-0.299969	-0.300349	-0.00306251	-7.41028e-06	-7.41028e-06	41	-6.16734e-07	11	1.40242e-10	1.85226e-10	20923.1	96877.8	0.8	6.16734e-07	0.000000000000000E+000	6.16734e-07	0.0000000E+000	5	9.19822e-07
2	0	0	0	0	0	0	8.8698	-0.299969	-0.300323	-0.0031357	-7.72385e-06	-7.72385e-06	41	-7.03837e-07	11	1.40242e-10	2.11385e-10	20923.1	664224	0.9	7.03837e-07	0.000000000000000E+000	7.03837e-07	0.0000000E+000	5	9.41722e-07
2	0	0	0	0	0	0	8.9698	-0.299969	-0.300372	-0.00319999	-8.04385e-06	-8.04385e-06	41	-7.92725e-07	11	1.40242e-10	2.38085e-10	20923.1	62261.4	1	7.92725e-07	0.000000000000000E+000	7.92725e-07	0.0000000E+000	5	9.61187e-07
2	0	0	0	0	0	0	9.0698	-0.299969	-0.300349	-0.00327597	-8.37145e-06	-8.37145e-06	41	-8.83725e-07	11	1.40242e-10	2.65417e-10	20923.1	139361	1.1	8.83725e-07	0.000000000000000E+000	8.83725e-07	0.0000000E+000	5	9.83935e-07
2	0	0	0	0	0	0	9.1698	-0.299969	-0.300296	-0.00337	-8.70845e-06	-8.70845e-06	41	-9.77336e-07	11	1.40242e-10	2.93528e-10	20923.1	114843	1.2	9.77336e-07	0.000000000000000E+000	9.77336e-07	0.0000000E+000	5	1.012e-06
2	0	0	0	0	0	0	9.2698	-0.299969	-0.300292	-0.00345334	-9.05378e-06	-9.05378e-06	41	-1.07326e-06	11	1.40242e-10	3.22333e-10	20923.1	111957	1.3	1.07326e-06	0.000000000000000E+000	1.07326e-06	0.0000000E+000	5	1.03701e-06
2	0	0	0	0	0	0	9.3698	-0.299969	-0.300349	-0.00352292	-9.40607e-06	-9.40607e-06	41	-1.17112e-06	11	1.40242e-10	3.51725e-10	20923.1	183962	1.4	1.17112e-06	0.000000000000000E+000	1.17112e-06	0.0000000E+000	5	1.05811e-06
2	0	0	0	0	0	0	9.4698	-0.299969	-0.300323	-0.00359612	-9.76568e-06	-9.76568e-06	41	-1.27101e-06	11	1.40242e-10	3.81725e-10	20923.1	1.19948e+06	1.5	1.27101e-06	0.000000000000000E+000	1.27101e-06	0.0000000E+000	5	1.08e-06
2	0	0	0	0	0	0	9.5698	-0.299969	-0.300315	-0.00359922	-1.01256e-05	-1.01256e-05	41	-1.37099e-06	11	1.40242e-10	4.1175e-10	20923.1	429042	1.6	1.37099e-06	0.000000000000000E+000	1.37099e-06	0.0000000E+000	5	1.0809e-06
2	0	0	0	0	0	0	9.6698	-0.299969	-0.300353	-0.00347424	-1.0473e-05	-1.0473e-05	41	-1.4675e-06	11	1.40242e-10	4.40736e-10	20923.1	197623	1.7	1.4675e-06	0.000000000000000E+000	1.4675e-06	0.0000000E+000	5	1.0435e-06
2	0	0	0	0	0	0	9.7698	-0.299969	-0.30033	-0.00301871	-1.07749e-05	-1.07749e-05	41	-1.55135e-06	11	1.40242e-10	4.6592e-10	20923.1	1.46404e+06	1.8	1.55135e-06	0.000000000000000E+000	1.55135e-06	0.0000000E+000	5	9.06609e-07
2	0	0	0	0	0	0	9.8698	-0.299969	-0.30033	-0.00176161	-1.09511e-05	-1.09511e-05	41	-1.60028e-06	11	1.40242e-10	4.80616e-10	20923.1	1.51022e+06	1.9	1.60028e-06	0.000000000000000E+000	1.60028e-06	342.692	5	5.29064e-07
2	1	0	0	0	0	0	9.9698	-0.299969	-0.300326	0.00110508	-1.08406e-05	-1.08406e-05	41	3.06967e-08	12	9.21903e-12	0.000000000000000E+000	0.000000000000000E+000	0.000000000000000E+000	0.000000000000000E+000	0.000000000000000E+000	3.06967e-08	3.06967e-08	0.0000000E+000	6	-3.31885e-07
2	1	0	0	0	0	0	10.0698	-0.299969	-0.300315	0.00574111	-1.02664e-05	-1.02664e-05	41	1.90172e-07	12	5.71118e-11	0.000000000000000E+000	59979.1	0.000000000000000E+000	0.1	0.000000000000000E+000	1.90172e-07	1.90172e-07	0.0000000E+000	6	-1.72414e-06
2	1	0	0	0	0	0	10.1698	-0.299969	-0.300361	0.0115054	-9.1159e-06	-9.1159e-06	41	5.09766e-07	12	1.53105e-10	0.000000000000000E+000	53314	0.000000000000000E+000	0.2	0.000000000000000E+000	5.09766e-07	5.09766e-07	0.0000000E+000	6	-3.45577e-06
2	1	0	0	0	0	0	10.2698	-0.299969	-0.300273	0.015469	-7.569e-06	-7.569e-06	41	9.39461e-07	12	2.82131e-10	0.000000000000000E+000	63292.3	0.000000000000000E+000	0.3	0.000000000000000E+000	9.39461e-07	9.39461e-07	0.0000000E+000	6	-4.64492e-06
2	1	0	0	0	0	0	10.3698	-0.299969	-0.300284	0.0131936	-6.24965e-06	-6.24965e-06	41	1.30595e-06	12	3.92181e-10	0.000000000000000E+000	112041	0.000000000000000E+000	0.4	0.000000000000000E+000	1.30595e-06	1.30595e-06	0.0000000E+000	6	-3.96182e-06
2	1	0	0	0	0	0	10.4698	-0.299969	-0.300334	0.00918837	-5.33081e-06	-5.33081e-06	41	1.56118e-06	12	4.68836e-10	0.000000000000000E+000	728125	0.000000000000000E+000	0.5	0.000000000000000E+000	1.56118e-06	1.56118e-06	0.0000000E+000	6	-2.75958e-06
2	0	0	0	0	0	0	10.5698	-0.299969	-0.3003	0.00310503	-5.02031e-06	-5.02031e-06	41	1.64743e-06	12	4.94738e-10	0.000000000000000E+000	222102	0.000000000000000E+000	0.6	0.000000000000000E+000	1.64743e-06	1.64743e-06	0.0000000E+000	6	-9.32439e-07
2	0	0	0	0	0	0	10.6698	-0.299969	-0.300311	-0.00236869	-5.25718e-06	-5.25718e-06	41	-6.57969e-08	13	4.94738e-10	1.97595e-11	222102	0.000000000000000E+000	0.000000000000000E+000	6.57969e-08	0.000000000000000E+000	6.57969e-08	0.0000000E+000	6	7.11343e-07
2	0	0	0	0	0	0	10.7698	-0.299969	-0.3003	-0.00297699	-5.55488e-06	-5.55488e-06	41	-1.48491e-07	13	4.94738e-10	4.45925e-11	222102	46469.2	0.1	1.48491e-07	0.000000000000000E+000	1.48491e-07	0.0000000E+000	6	8.93989e-07
2	0	0	0	0	0	0	10.8698	-0.299969	-0.300361	-0.003054	-5.86028e-06	-5.86028e-06	41	-2.33324e-07	13	4.94738e-10	7.00731e-11	222102	16907.4	0.2	2.33324e-07	0.000000000000000E+000	2.33324e-07	0.0000000E+000	6	9.17301e-07
2	0	0	0	0	0	0	10.9698	-0.299969	-0.300365	-0.00330355	-6.19063e-06	-6.19063e-06	41	-3.25089e-07	13	4.94738e-10	9.76361e-11	222102	21852.8	0.3	3.25089e-07	0.000000000000000E+000	3.25089e-07	0.0000000E+000	6	9.92269e-07
2	0	0	0	0	0	0	11.0698	-0.299969	-0.300311	-0.00358314	-6.54894e-06	-6.54894e-06	41	-4.24621e-07	13	4.94738e-10	1.27527e-10	222102	0.000000000000000E+000	0.4	4.24621e-07	0.000000000000000E+000	4.24621e-07	0.0000000E+000	6	1.07606e-06
2	0	0	0	0	0	0	11.1698	-0.299969	-0.300376	-0.00385276	-6.93422e-06	-6.93422e-06	41	-5.31642e-07	13	4.94738e-10	1.59673e-10	222102	29458.8	0.5	5.31642e-07	0.000000000000000E+000	5.31642e-07	0.0000000E+000	6	1.15728e-06
2	0	0	0	0	0	0	11.2698	-0.299969	-0.300322	-0.00406458	-7.34068e-06	-7.34068e-06	41	-6.44547e-07	13	4.94738e-10	1.93581e-10	222102	202757	0.6	6.44547e-07	0.000000000000000E+000	6.44547e-07	0.0000000E+000	6	1.22068e-06
2	0	0	0	0	0	0	11.3698	-0.299969	-0.300338	-0.00380568	-7.72124e-06	-7.72124e-06	41	-7.5026e-07	13	4.94738e-10	2.25331e-10	222102	100698	0.7	7.5026e-07	0.000000000000000E+000	7.5026e-07	0.0000000E+000	6	1.14299e-06
2	0	0	0	0	0	0	11.4698	-0.299969	-0.300307	-0.0034878	-8.07002e-06	-8.07002e-06	41	-8.47144e-07	13	4.94738e-10	2.54425e-10	222102	787165	0.8	8.47144e-07	0.000000000000000E+000	8.47144e-07	0.0000000E+000	6	1.04741e-06
2	0	0	0	0	0	0	11.5698	-0.299969	-0.300338	-0.00187999	-8.25802e-06	-8.25802e-06	41	-8.99366e-07	13	4.94738e-10	2.7011e-10	222102	121115	0.9	8.99366e-07	0.000000000000000E+000	8.99366e-07	54.592	6	5.64633e-07
2	1	0	0	0	0	0	11.6698	-0.299969	-0.300334	0.000533765	-8.20465e-06	-8.20465e-06	41	1.48268e-08	14	4.45299e-12	0.000000000000000E+000	0.000000000000000E+000	0.000000000000000E+000	0.000000000000000E+000	0.000000000000000E+000	1.48268e-08	1.48268e-08	0.0000000E+000	7	-1.60308e-07
2	1	0	0	0	0	0	11.7698	-0.299969	-0.300303	0.0027059	-7.93406e-06	-7.93406e-06	41	8.99908e-08	14	2.7025e-11	0.000000000000000E+000	10574.4	0.000000000000000E+000	0.1	0.000000000000000E+000	8.99908e-08	8.99908e-08	0.0000000E+000	7	-8.12592e-07
2	1	0	0	0	0	0	11.8698	-0.299969	-0.300342	0.00346375	-7.58768e-06	-7.58768e-06	41	1.86206e-07	14	5.59225e-11	0.000000000000000E+000	87182	0.000000000000000E+000	0.2	0.000000000000000E+000	1.86206e-07	1.86206e-07	0.0000000E+000	7	-1.04031e-06
2	1	0	0	0	0	0	11.9698	-0.299969	-0.30025	0.00251773	-7.33591e-06	-7.33591e-06	41	2.56143e-07	14	7.6921e-11	0.000000000000000E+000	10956.5	0.000000000000000E+000	0.3	0.000000000000000E+000	2.56143e-07	2.56143e-07	0.0000000E+000	7	-7.55947e-07
2	0	0	0	0	0	0	12.0698	-0.299969	-0.3003	0.000918317	-7.24408e-06	-7.24408e-06	41	2.81652e-07	14	8.45813e-11	0.000000000000000E+000	29431.1	0.000000000000000E+000	0.4	0.000000000000000E+000	2.81652e-07	2.81652e-07	0.0000000E+000	7	-2.7577e-07
2	0	0	0	0	0	0	12.1698	-0.299969	-0.300284	-0.000462424	-7.29032e-06	-7.29032e-06	41	-1.28451e-08	15	8.45813e-11	3.85718e-12	29431.1	0.000000000000000E+000	0.000000000000000E+000	1.28451e-08	0.000000000000000E+000	1.28451e-08	0.0000000E+000	7	1.38859e-07
2	0	0	0	0	0	0	12.2698	-0.299969	-0.300342	-0.00140286	-7.43061e-06	-7.43061e-06	41	-5.18135e-08	15	8.45813e-11	1.5561e-11	29431.1	3247.98	0.1	5.18135e-08	0.000000000000000E+000	5.18135e-08	0.0000000E+000	7	4.21337e-07
2	0	0	0	0	0	0	12.3698	-0.299969	-0.300311	-0.00194171	-7.62478e-06	-7.62478e-06	41	-1.0575e-07	15	8.45813e-11	3.17587e-11	29431.1	14209.3	0.2	1.0575e-07	0.000000000000000E+000	1.0575e-07	0.0000000E+000	7	5.83117e-07
2	0	0	0	0	0	0	12.4698	-0.299969	-0.300353	-0.00224949	-7.84973e-06	-7.84973e-06	41	-1.68236e-07	15	8.45813e-11	5.05265e-11	29431.1	8797.48	0.3	1.68236e-07	0.000000000000000E+000	1.68236e-07	0.0000000E+000	7	6.7564e-07
2	0	0	0	0	0	0	12.5698	-0.299969	-0.300349	-0.00242695	-8.09242e-06	-8.09242e-06	41	-2.35651e-07	15	8.45813e-11	7.07747e-11	29431.1	13045.7	0.4	2.35651e-07	0.000000000000000E+000	2.35651e-07	0.0000000E+000	7	7.28934e-07
2	0	0	0	0	0	0	12.6698	-0.299969	-0.300315	-0.0025136	-8.34378e-06	-8.34378e-06	41	-3.05473e-07	15	8.45813e-11	9.17433e-11	29431.1	35929.8	0.5	3.05473e-07	0.000000000000000E+000	3.05473e-07	0.0000000E+000	7	7.54873e-07
2	0	0	0	0	0	0	12.7698	-0.299969	-0.300315	-0.00246466	-8.59025e-06	-8.59025e-06	41	-3.73936e-07	15	8.45813e-11	1.12304e-10	29431.1	43982.4	0.6	3.73936e-07	0.000000000000000E+000	3.73936e-07	0.0000000E+000	7	7.40173e-07
2	0	0	0	0	0	0	12.8698	-0.299969	-0.300326	-0.00247455	-8.8377e-06	-8.8377e-06	41	-4.42674e-07	15	8.45813e-11	1.32947e-10	29431.1	37843.7	0.7	4.42674e-07	0.000000000000000E+000	4.42674e-07	0.0000000E+000	7	7.43173e-07
2	0	0	0	0	0	0	12.9698	-0.299969	-0.300292	-0.00260819	-9.09852e-06	-9.09852e-06	41	-5.15123e-07	15	8.45813e-11	1.54703e-10	29431.1	241181	0.8	5.15123e-07	0.000000000000000E+000	5.15123e-07	0.0000000E+000	7	7.83218e-07
2	0	0	0	0	0	0	13.0698	-0.299969	-0.300311	-0.00267129	-9.36565e-06	-9.36565e-06	41	-5.89326e-07	15	8.45813e-11	1.76987e-10	29431.1	79185.9	0.9	5.89326e-07	0.000000000000000E+000	5.89326e-07	0.0000000E+000	7	8.02217e-07
2	0	0	0	0	0	0	13.1698	-0.299969	-0.300345	-0.00272082	-9.63773e-06	-9.63773e-06	41	-6.64904e-07	15	8.45813e-11	1.99687e-10	29431.1	39141.2	1	6.64904e-07	0.000000000000000E+000	6.64904e-07	0.0000000E+000	7	8.17186e-07
2	0	0	0	0	0	0	13.2698	-0.299969	-0.300292	-0.00279594	-9.91732e-06	-9.91732e-06	41	-7.42569e-07	15	8.45813e-11	2.23009e-10	29431.1	350388	1.1	7.42569e-07	0.000000000000000E+000	7.42569e-07	0.0000000E+000	7	8.39597e-07
2	0	0	0	0	0	0	13.3698	-0.299969	-0.300303	-0.00286941	-1.02043e-05	-1.02043e-05	41	-8.22275e-07	15	8.45813e-11	2.46945e-10	29431.1	154235	1.2	8.22275e-07	0.000000000000000E+000	8.22275e-07	0.0000000E+000	7	8.61694e-07
2	0	0	0	0	0	0	13.4698	-0.299969	-0.300323	-0.00295466	-1.04997e-05	-1.04997e-05	41	-9.04349e-07	15	8.45813e-11	2.71594e-10	29431.1	85013	1.3	9.04349e-07	0.000000000000000E+000	9.04349e-07	0.0000000E+000	7	8.87352e-07
2	0	0	0	0	0	0	13.5698	-0.299969	-0.30033	-0.00306122	-1.08059e-05	-1.08059e-05	41	-9.89382e-07	15	8.45813e-11	2.97132e-10	29431.1	77555.7	1.4	9.89382e-07	0.000000000000000E+000	9.89382e-07	0.0000000E+000	7	9.19375e-07
2	0	0	0	0	0	0	13.6698	-0.299969	-0.30033	-0.00315809	-1.11217e-05	-1.11217e-05	41	-1.07711e-06	15	8.45813e-11	3.23478e-10	29431.1	84432.3	1.5	1.07711e-06	0.000000000000000E+000	1.07711e-06	0.0000000E+000	7	9.4847e-07
2	0	0	0	0	0	0	13.7698	-0.299969	-0.300391	-0.00324131	-1.14458e-05	-1.14458e-05	41	-1.16714e-06	15	8.45813e-11	3.50524e-10	29431.1	39239.1	1.6	1.16714e-06	0.000000000000000E+000	1.16714e-06	0.0000000E+000	7	9.73663e-07
2	0	0	0	0	0	0	13.8698	-0.299969	-0.300357	-0.00331052	-1.17768e-05	-1.17768e-05	41	-1.2591e-06	15	8.45813e-11	3.78145e-10	29431.1	62410.5	1.7	1.2591e-06	0.000000000000000E+000	1.2591e-06	0.0000000E+000	7	9.94337e-07
2	0	0	0	0	0	0	13.9698	-0.299969	-0.300349	-0.00336778	-1.21136e-05	-1.21136e-05	41	-1.35265e-06	15	8.45813e-11	4.06242e-10	29431.1	74883.1	1.8	1.35265e-06	0.000000000000000E+000	1.35265e-06	0.0000000E+000	7	1.01151e-06
2	0	0	0	0	0	0	14.0698	-0.299969	-0.300338	-0.00340589	-1.24542e-05	-1.24542e-05	41	-1.44726e-06	15	8.45813e-11	4.34657e-10	29431.1	97340.3	1.9	1.44726e-06	0.000000000000000E+000	1.44726e-06	0.0000000E+000	7	1.02292e-06
2	0	0	0	0	0	0	14.1698	-0.299969	-0.300303	-0.00345763	-1.28e-05	-1.28e-05	41	-1.54331e-06	15	8.45813e-11	4.635e-10	29431.1	290835	2	1.54331e-06	0.000000000000000E+000	1.54331e-06	0.0000000E+000	7	1.03834e-06
2	0	0	0	0	0	0	14.2698	-0.299969	-0.30033	-0.00349629	-1.31496e-05	-1.31496e-05	41	-1.64042e-06	15	8.45813e-11	4.92667e-10	29431.1	128840	2.1	1.64042e-06	0.000000000000000E+000	1.64042e-06	0.0000000E+000	7	1.05004e-06
2	0	0	0	0	0	0	14.3698	-0.299969	-0.300315	-0.00351577	-1.35012e-05	-1.35012e-05	41	-1.73808e-06	15	8.45813e-11	5.21996e-10	29431.1	204434	2.2	1.73808e-06	0.000000000000000E+000	1.73808e-06	0.0000000E+000	7	1.05584e-06
2	0	0	0	0	0	0	14.4698	-0.299969	-0.300319	-0.00354736	-1.38559e-05	-1.38559e-05	41	-1.83662e-06	15	8.45813e-11	5.51589e-10	29431.1	192084	2.3	1.83662e-06	0.000000000000000E+000	1.83662e-06	0.0000000E+000	7	1.06534e-06
2	0	0	0	0	0	0	14.5698	-0.299969	-0.300288	-0.00358254	-1.42142e-05	-1.42142e-05	41	-1.93614e-06	15	8.45813e-11	5.81472e-10	29431.1	1.79906e+06	2.4	1.93614e-06	0.000000000000000E+000	1.93614e-06	0.0000000E+000	7	1.07579e-06
2	0	0	0	0	0	0	14.6698	-0.299969	-0.300353	-0.00358999	-1.45732e-05	-1.45732e-05	41	-2.03586e-06	15	8.45813e-11	6.11424e-10	29431.1	106460	2.5	2.03586e-06	0.000000000000000E+000	2.03586e-06	0.0000000E+000	7	1.07827e-06
2	0	0	0	0	0	0	14.7698	-0.299969	-0.300357	-0.00359987	-1.49332e-05	-1.49332e-05	41	-2.13586e-06	15	8.45813e-11	6.41458e-10	29431.1	105826	2.6	2.13586e-06	0.000000000000000E+000	2.13586e-06	0.0000000E+000	7	1.08125e-06
2	0	0	0	0	0	0	14.8698	-0.299969	-0.300365	-0.00358971	-1.52921e-05	-1.52921e-05	41	-2.23557e-06	15	8.45813e-11	6.71409e-10	29431.1	100203	2.7	2.23557e-06	0.000000000000000E+000	2.23557e-06	0.0000000E+000	7	1.07822e-06
2	0	0	0	0	0	0	14.9698	-0.299969	-0.300303	-0.00359362	-1.56515e-05	-1.56515e-05	41	-2.33539e-06	15	8.45813e-11	7.01386e-10	29431.1	438053	2.8	2.33539e-06	0.000000000000000E+000	2.33539e-06	0.0000000E+000	7	1.07918e-06
2	0	0	0	0	0	0	15.0698	-0.299969	-0.300349	-0.00360989	-1.60125e-05	-1.60125e-05	41	-2.43567e-06	15	8.45813e-11	7.31504e-10	29431.1	134839	2.9	2.43567e-06	0.000000000000000E+000	2.43567e-06	0.0000000E+000	7	1.08423e-06
2	0	0	0	0	0	0	15.1698	-0.299969	-0.30038	-0.00364368	-1.63768e-05	-1.63768e-05	41	-2.53688e-06	15	8.45813e-11	7.61906e-10	29431.1	95495.5	3	2.53688e-06	0.000000000000000E+000	2.53688e-06	0.0000000E+000	7	1.09449e-06
2	0	0	0	0	0	0	15.2698	-0.299969	-0.300342	-0.0036462	-1.67415e-05	-1.67415e-05	41	-2.63816e-06	15	8.45813e-11	7.92325e-10	29431.1	165634	3.1	2.63816e-06	0.000000000000000E+000	2.63816e-06	0.0000000E+000	7	1.09511e-06
2	0	0	0	0	0	0	15.3698	-0.299969	-0.300353	-0.00364206	-1.71057e-05	-1.71057e-05	41	-2.73933e-06	15	8.45813e-11	8.22712e-10	29431.1	143247	3.2	2.73933e-06	0.000000000000000E+000	2.73933e-06	0.0000000E+000	7	1.0939e-06
2	0	0	0	0	0	0	15.4698	-0.299969	-0.300281	-0.00363917	-1.74696e-05	-1.74696e-05	41	-2.84042e-06	15	8.45813e-11	8.53067e-10	29431.1	2.74489e+06	3.3	2.84042e-06	0.000000000000000E+000	2.84042e-06	0.0000000E+000	7	1.09277e-06
2	0	0	0	0	0	0	15.5698	-0.299969	-0.30033	-0.00364768	-1.78344e-05	-1.78344e-05	41	-2.94175e-06	15	8.45813e-11	8.83497e-10	29431.1	230598	3.4	2.94175e-06	0.000000000000000E+000	2.94175e-06	0.0000000E+000	7	1.09551e-06
2	0	0	0	0	0	0	15.6698	-0.299969	-0.300319	-0.00363403	-1.81978e-05	-1.81978e-05	41	-3.04269e-06	15	8.45813e-11	9.13813e-10	29431.1	317670	3.5	3.04269e-06	0.000000000000000E+000	3.04269e-06	0.0000000E+000	7	1.09137e-06
2	0	0	0	0	0	0	15.7698	-0.299969	-0.300307	-0.00363711	-1.85615e-05	-1.85615e-05	41	-3.14372e-06	15	8.45813e-11	9.44153e-10	29431.1	493822	3.6	3.14372e-06	0.000000000000000E+000	3.14372e-06	0.0000000E+000	7	1.09225e-06
2	0	0	0	0	0	0	15.8698	-0.299969	-0.300303	-0.00362442	-1.89239e-05	-1.89239e-05	41	-3.2444e-06	15	8.45813e-11	9.74388e-10	29431.1	611405	3.7	3.2444e-06	0.000000000000000E+000	3.2444e-06	0.0000000E+000	7	1.08843e-06
2	0	0	0	0	0	0	15.9698	-0.299969	-0.30025	-0.00360643	-1.92846e-05	-1.92846e-05	41	-3.34458e-06	15	8.45813e-11	1.00447e-09	29431.1	350704	3.8	3.34458e-06	0.000000000000000E+000	3.34458e-06	0.0000000E+000	7	1.08283e-06
2	0	0	0	0	0	0	16.0698	-0.299969	-0.300353	-0.00360205	-1.96448e-05	-1.96448e-05	41	-3.44464e-06	15	8.45813e-11	1.03452e-09	29431.1	180129	3.9	3.44464e-06	0.000000000000000E+000	3.44464e-06	0.0000000E+000	7	1.08189e-06
2	0	0	0	0	0	0	16.1698	-0.299969	-0.300319	-0.00363058	-2.00078e-05	-2.00078e-05	41	-3.54548e-06	15	8.45813e-11	1.06481e-09	29431.1	370805	4	3.54548e-06	0.000000000000000E+000	3.54548e-06	0.0000000E+000	7	1.09033e-06
2	0	0	0	0	0	0	16.2698	-0.299969	-0.300322	-0.00364362	-2.03722e-05	-2.03722e-05	41	-3.6467e-06	15	8.45813e-11	1.0952e-09	29431.1	343341	4.1	3.6467e-06	0.000000000000000E+000	3.6467e-06	0.0000000E+000	7	1.09426e-06
2	0	0	0	0	0	0	16.3698	-0.299969	-0.3003	-0.00361861	-2.0734e-05	-2.0734e-05	41	-3.74721e-06	15	8.45813e-11	1.12539e-09	29431.1	882355	4.2	3.74721e-06	0.000000000000000E+000	3.74721e-06	0.0000000E+000	7	1.08667e-06
2	0	0	0	0	0	0	16.4698	-0.299969	-0.300334	-0.0036156	-2.10956e-05	-2.10956e-05	41	-3.84765e-06	15	8.45813e-11	1.15555e-09	29431.1	278478	4.3	3.84765e-06	0.000000000000000E+000	3.84765e-06	0.0000000E+000	7	1.08589e-06
2	0	0	0	0	0	0	16.5698	-0.299969	-0.300338	-0.00360031	-2.14556e-05	-2.14556e-05	41	-3.94765e-06	15	8.45813e-11	1.18559e-09	29431.1	265513	4.4	3.94765e-06	0.000000000000000E+000	3.94765e-06	0.0000000E+000	7	1.08131e-06
2	0	0	0	0	0	0	16.6698	-0.299969	-0.300342	-0.00358966	-2.18146e-05	-2.18146e-05	41	-4.04737e-06	15	8.45813e-11	1.21553e-09	29431.1	253845	4.5	4.04737e-06	0.000000000000000E+000	4.04737e-06	0.0000000E+000	7	1.07812e-06
2	0	0	0	0	0	0	16.7698	-0.299969	-0.300342	-0.0035844	-2.2173e-05	-2.2173e-05	41	-4.14693e-06	15	8.45813e-11	1.24544e-09	29431.1	259955	4.6	4.14693e-06	0.000000000000000E+000	4.14693e-06	0.0000000E+000	7	1.07654e-06
2	0	0	0	0	0	0	16.8698	-0.299969	-0.300311	-0.00358842	-2.25319e-05	-2.25319e-05	41	-4.24661e-06	15	8.45813e-11	1.27537e-09	29431.1	570605	4.7	4.24661e-06	0.000000000000000E+000	4.24661e-06	0.0000000E+000	7	1.07764e-06
2	0	0	0	0	0	0	16.9698	-0.299969	-0.300315	-0.00357522	-2.28894e-05	-2.28894e-05	41	-4.34592e-06	15	8.45813e-11	1.3052e-09	29431.1	511169	4.8	4.34592e-06	0.000000000000000E+000	4.34592e-06	0.0000000E+000	7	1.07369e-06
2	0	0	0	0	0	0	17.0698	-0.299969	-0.30028	-0.0035649	-2.32459e-05	-2.32459e-05	41	-4.44495e-06	15	8.45813e-11	1.33493e-09	29431.1	4.19478e+06	4.9	4.44495e-06	0.000000000000000E+000	4.44495e-06	0.0000000E+000	7	1.07047e-06
2	0	0	0	0	0	0	17.1698	-0.299969	-0.300307	-0.00356206	-2.36021e-05	-2.36021e-05	41	-4.5439e-06	15	8.45813e-11	1.36465e-09	29431.1	711912	5	4.5439e-06	0.000000000000000E+000	4.5439e-06	0.0000000E+000	7	1.06971e-06
2	0	0	0	0	0	0	17.2698	-0.299969	-0.300303	-0.00355963	-2.39581e-05	-2.39581e-05	41	-4.64277e-06	15	8.45813e-11	1.39434e-09	29431.1	874927	5.1	4.64277e-06	0.000000000000000E+000	4.64277e-06	0.0000000E+000	7	1.06897e-06
2	0	0	0	0	0	0	17.3698	-0.299969	-0.300322	-0.00355505	-2.43136e-05	-2.43136e-05	41	-4.74153e-06	15	8.45813e-11	1.424e-09	29431.1	446420	5.2	4.74153e-06	0.000000000000000E+000	4.74153e-06	0.0000000E+000	7	1.06766e-06
2	0	0	0	0	0	0	17.4698	-0.299969	-0.300326	-0.00355184	-2.46688e-05	-2.46688e-05	41	-4.84019e-06	15	8.45813e-11	1.45363e-09	29431.1	413783	5.3	4.84019e-06	0.000000000000000E+000	4.84019e-06	0.0000000E+000	7	1.06671e-06
2	0	0	0	0	0	0	17.5698	-0.299969	-0.300334	-0.00356299	-2.5025e-05	-2.5025e-05	41	-4.93916e-06	15	8.45813e-11	1.48335e-09	29431.1	357478	5.4	4.93916e-06	0.000000000000000E+000	4.93916e-06	0.0000000E+000	7	1.07009e-06
2	0	0	0	0	0	0	17.6698	-0.299969	-0.300292	-0.00355952	-2.5381e-05	-2.5381e-05	41	-5.03804e-06	15	8.45813e-11	1.51305e-09	29431.1	2.35881e+06	5.5	5.03804e-06	0.000000000000000E+000	5.03804e-06	0.0000000E+000	7	1.0689e-06
2	0	0	0	0	0	0	17.7698	-0.299969	-0.300307	-0.00355607	-2.57366e-05	-2.57366e-05	41	-5.13681e-06	15	8.45813e-11	1.54271e-09	29431.1	803765	5.6	5.13681e-06	0.000000000000000E+000	5.13681e-06	0.0000000E+000	7	1.06791e-06
2	0	0	0	0	0	0	17.8698	-0.299969	-0.300322	-0.00356007	-2.60926e-05	-2.60926e-05	41	-5.23571e-06	15	8.45813e-11	1.57241e-09	29431.1	492948	5.7	5.23571e-06	0.000000000000000E+000	5.23571e-06	0.0000000E+000	7	1.06917e-06
2	0	0	0	0	0	0	17.9698	-0.299969	-0.300322	-0.00356319	-2.64489e-05	-2.64489e-05	41	-5.33468e-06	15	8.45813e-11	1.60213e-09	29431.1	502658	5.8	5.33468e-06	0.000000000000000E+000	5.33468e-06	0.0000000E+000	7	1.07011e-06
2	0	0	0	0	0	0	18.0698	-0.299969	-0.300326	-0.00355885	-2.68048e-05	-2.68048e-05	41	-5.43354e-06	15	8.45813e-11	1.63182e-09	29431.1	465496	5.9	5.43354e-06	0.000000000000000E+000	5.43354e-06	0.0000000E+000	7	1.06882e-06
2	0	0	0	0	0	0	18.1698	-0.299969	-0.3003	-0.00356157	-2.7161e-05	-2.7161e-05	41	-5.53247e-06	15	8.45813e-11	1.66153e-09	29431.1	1.29516e+06	6	5.53247e-06	0.000000000000000E+000	5.53247e-06	0.0000000E+000	7	1.06954e-06
2	0	0	0	0	0	0	18.2698	-0.299969	-0.300349	-0.00356764	-2.75177e-05	-2.75177e-05	41	-5.63157e-06	15	8.45813e-11	1.6913e-09	29431.1	311765	6.1	5.63157e-06	0.000000000000000E+000	5.63157e-06	0.0000000E+000	7	1.07154e-06
2	0	0	0	0	0	0	18.3698	-0.299969	-0.300338	-0.00356626	-2.78744e-05	-2.78744e-05	41	-5.73064e-06	15	8.45813e-11	1.72105e-09	29431.1	385433	6.2	5.73064e-06	0.000000000000000E+000	5.73064e-06	0.0000000E+000	7	1.07108e-06
2	0	0	0	0	0	0	18.4698	-0.299969	-0.300323	-0.00356344	-2.82307e-05	-2.82307e-05	41	-5.82962e-06	15	8.45813e-11	1.75078e-09	29431.1	548011	6.3	5.82962e-06	0.000000000000000E+000	5.82962e-06	0.0000000E+000	7	1.07018e-06
2	0	0	0	0	0	0	18.5698	-0.299969	-0.300307	-0.00356373	-2.85871e-05	-2.85871e-05	41	-5.92861e-06	15	8.45813e-11	1.78051e-09	29431.1	927659	6.4	5.92861e-06	0.000000000000000E+000	5.92861e-06	0.0000000E+000	7	1.07021e-06
2	0	0	0	0	0	0	18.6698	-0.299969	-0.300323	-0.00356605	-2.89437e-05	-2.89437e-05	41	-6.02767e-06	15	8.45813e-11	1.81025e-09	29431.1	566629	6.5	6.02767e-06	0.000000000000000E+000	6.02767e-06	0.0000000E+000	7	1.07097e-06
2	0	0	0	0	0	0	18.7698	-0.299969	-0.3003	-0.0035494	-2.92986e-05	-2.92986e-05	41	-6.12626e-06	15	8.45813e-11	1.83986e-09	29431.1	1.43974e+06	6.6	6.12626e-06	0.000000000000000E+000	6.12626e-06	0.0000000E+000	7	1.06588e-06
2	0	0	0	0	0	0	18.8698	-0.299969	-0.300284	-0.00355323	-2.9654e-05	-2.9654e-05	41	-6.22497e-06	15	8.45813e-11	1.8695e-09	29431.1	0.000000000000000E+000	6.7	6.22497e-06	0.000000000000000E+000	6.22497e-06	0.0000000E+000	7	1.06698e-06
2	0	0	0	0	0	0	18.9698	-0.299969	-0.300288	-0.0035478	-3.00087e-05	-3.00087e-05	41	-6.32352e-06	15	8.45813e-11	1.89909e-09	29431.1	5.96762e+06	6.8	6.32352e-06	0.000000000000000E+000	6.32352e-06	0.0000000E+000	7	1.06536e-06
2	0	0	0	0	0	0	19.0698	-0.299969	-0.300303	-0.00353612	-3.03623e-05	-3.03623e-05	41	-6.42174e-06	15	8.45813e-11	1.92859e-09	29431.1	1.20453e+06	6.9	6.42174e-06	0.000000000000000E+000	6.42174e-06	0.0000000E+000	7	1.06191e-06
2	0	0	0	0	0	0	19.1698	-0.299969	-0.300208	-0.00352567	-3.07149e-05	-3.07149e-05	41	-6.51968e-06	15	8.45813e-11	1.95799e-09	29431.1	306918	7	6.51968e-06	0.000000000000000E+000	6.51968e-06	0.0000000E+000	7	1.05843e-06
2	0	0	0	0	0	0	19.2698	-0.299969	-0.300254	-0.00352296	-3.10672e-05	-3.10672e-05	41	-6.61754e-06	15	8.45813e-11	1.98737e-09	29431.1	779875	7.1	6.61754e-06	0.000000000000000E+000	6.61754e-06	0.0000000E+000	7	1.05778e-06
2	0	0	0	0	0	0	19.3698	-0.299969	-0.300303	-0.00355493	-3.14227e-05	-3.14227e-05	41	-6.71628e-06	15	8.45813e-11	2.01703e-09	29431.1	1.25978e+06	7.2	6.71628e-06	0.000000000000000E+000	6.71628e-06	0.0000000E+000	7	1.06756e-06
2	0	0	0	0	0	0	19.4698	-0.299969	-0.300349	-0.00355916	-3.17786e-05	-3.17786e-05	41	-6.81515e-06	15	8.45813e-11	2.04672e-09	29431.1	377288	7.3	6.81515e-06	0.000000000000000E+000	6.81515e-06	0.0000000E+000	7	1.06899e-06
2	0	0	0	0	0	0	19.5698	-0.299969	-0.300349	-0.00354923	-3.21335e-05	-3.21335e-05	41	-6.91374e-06	15	8.45813e-11	2.07633e-09	29431.1	383097	7.4	6.91374e-06	0.000000000000000E+000	6.91374e-06	0.0000000E+000	7	1.06601e-06
2	0	0	0	0	0	0	19.6698	-0.299969	-0.300349	-0.00353513	-3.24871e-05	-3.24871e-05	41	-7.01194e-06	15	8.45813e-11	2.10583e-09	29431.1	388182	7.5	7.01194e-06	0.000000000000000E+000	7.01194e-06	0.0000000E+000	7	1.06177e-06
2	0	0	0	0	0	0	19.7698	-0.299969	-0.300307	-0.00353634	-3.28407e-05	-3.28407e-05	41	-7.11017e-06	15	8.45813e-11	2.13533e-09	29431.1	1.11398e+06	7.6	7.11017e-06	0.000000000000000E+000	7.11017e-06	0.0000000E+000	7	1.06199e-06
2	0	0	0	0	0	0	19.8698	-0.299969	-0.300345	-0.00352337	-3.3193e-05	-3.3193e-05	41	-7.20804e-06	15	8.45813e-11	2.16472e-09	29431.1	423906	7.7	7.20804e-06	0.000000000000000E+000	7.20804e-06	0.0000000E+000	7	1.05823e-06
2	0	0	0	0	0	0	19.9698	-0.299969	-0.30033	-0.00352674	-3.35457e-05	-3.35457e-05	41	-7.30601e-06	15	8.45813e-11	2.19415e-09	29431.1	572703	7.8	7.30601e-06	0.000000000000000E+000	7.30601e-06	0.0000000E+000	7	1.05919e-06
2	0	0	0	0	0	0	20.0698	-0.299969	-0.300258	-0.00352737	-3.38984e-05	-3.38984e-05	41	-7.40399e-06	15	8.45813e-11	2.22357e-09	29431.1	997070	7.9	7.40399e-06	0.000000000000000E+000	7.40399e-06	0.0000000E+000	7	1.05912e-06
2	0	0	0	0	0	0	20.1698	-0.299969	-0.300342	-0.00351831	-3.42503e-05	-3.42503e-05	41	-7.50172e-06	15	8.45813e-11	2.25292e-09	29431.1	470986	8	7.50172e-06	0.000000000000000E+000	7.50172e-06	0.0000000E+000	7	1.0567e-06
2	0	0	0	0	0	0	20.2698	-0.299969	-0.300292	-0.00353565	-3.46038e-05	-3.46038e-05	41	-7.59993e-06	15	8.45813e-11	2.28241e-09	29431.1	3.5583e+06	8.1	7.59993e-06	0.000000000000000E+000	7.59993e-06	0.0000000E+000	7	1.06173e-06
2	0	0	0	0	0	0	20.3698	-0.299969	-0.300311	-0.00352389	-3.49562e-05	-3.49562e-05	41	-7.69782e-06	15	8.45813e-11	2.31181e-09	29431.1	1.03664e+06	8.2	7.69782e-06	0.000000000000000E+000	7.69782e-06	0.0000000E+000	7	1.05826e-06
2	0	0	0	0	0	0	20.4698	-0.299969	-0.300342	-0.00352205	-3.53084e-05	-3.53084e-05	41	-7.79565e-06	15	8.45813e-11	2.34119e-09	29431.1	489440	8.3	7.79565e-06	0.000000000000000E+000	7.79565e-06	0.0000000E+000	7	1.05782e-06
2	0	0	0	0	0	0	20.5698	-0.299969	-0.300334	-0.00353176	-3.56616e-05	-3.56616e-05	41	-7.89376e-06	15	8.45813e-11	2.37065e-09	29431.1	571320	8.4	7.89376e-06	0.000000000000000E+000	7.89376e-06	0.0000000E+000	7	1.06071e-06
2	0	0	0	0	0	0	20.6698	-0.299969	-0.300281	-0.00353367	-3.6015e-05	-3.6015e-05	41	-7.99191e-06	15	8.45813e-11	2.40013e-09	29431.1	7.72313e+06	8.5	7.99191e-06	0.000000000000000E+000	7.99191e-06	0.0000000E+000	7	1.06109e-06
2	0	0	0	0	0	0	20.7698	-0.299969	-0.300288	-0.00353942	-3.63689e-05	-3.63689e-05	41	-8.09023e-06	15	8.45813e-11	2.42965e-09	29431.1	7.6349e+06	8.6	8.09023e-06	0.000000000000000E+000	8.09023e-06	0.0000000E+000	7	1.06285e-06
2	0	0	0	0	0	0	20.8698	-0.299969	-0.300319	-0.00353405	-3.67223e-05	-3.67223e-05	41	-8.1884e-06	15	8.45813e-11	2.45913e-09	29431.1	856386	8.7	8.1884e-06	0.000000000000000E+000	8.1884e-06	0.0000000E+000	7	1.06134e-06
2	0	0	0	0	0	0	20.9544	-0.299969	-0.300338	-0.00353169	-3.70211e-05	-3.70211e-05	41	-8.27139e-06	15	8.45813e-11	2.48406e-09	29431.1	556320	8.7846	8.27139e-06	0.000000000000000E+000	8.27139e-06	2936.74	7	1.0607e-06