File: Fig 3/Fig 3_RRDE-np-Fe3O4_5mvs_1.mpt
mode	ox/red	error	control changes	counter inc.	time/s	control/V	Ewe/V	<I>/mA	cycle number	(Q-Qo)/C	I Range	step time/s	P/W
2	1	1	0	0	0.000000000000000E+000	-0.299997	-0.299849	0.0587073	1	0.0000000E+000	39	0.000000000000000E+000	-1.76033e-05
2	1	0	1	0	1.3102	-0.306548	-0.306351	0.000807812	1	3.81964e-06	39	1.2001	-2.47474e-07
2	1	0	0	0	2.7104	-0.313549	-0.313347	0.000430267	1	4.53242e-06	39	2.6003	-1.34823e-07
2	1	0	0	0	4.1104	-0.320549	-0.320345	0.000288982	1	4.92071e-06	39	4.0003	-9.25739e-08
2	0	0	1	0	5.5106	-0.32755	-0.327361	0.000226006	1	5.17874e-06	39	5.4005	-7.39854e-08
2	0	0	1	0	6.9106	-0.33455	-0.334356	0.000211939	1	5.37287e-06	39	6.8005	-7.08632e-08
2	1	0	0	0	8.3108	-0.341551	-0.341343	0.0001631	1	5.52089e-06	39	8.2007	-5.56731e-08
2	0	0	1	0	9.711	-0.348552	-0.348381	0.000157919	1	5.60545e-06	39	9.6009	-5.50159e-08
2	0	0	1	0	11.111	-0.355552	-0.355345	9.23013e-05	1	5.63166e-06	39	11.0009	-3.27988e-08
2	1	0	0	0	12.5112	-0.362553	-0.362353	3.87552e-05	1	5.60317e-06	39	1.0001	-1.40431e-08
2	0	0	1	0	13.9113	-0.369553	-0.369343	3.28873e-05	1	5.52187e-06	39	2.4002	-1.21467e-08
2	0	0	1	0	15.3114	-0.376554	-0.37635	-5.0403e-05	1	5.3841e-06	39	3.8003	1.89692e-08
2	1	0	0	0	16.7116	-0.383555	-0.383347	-3.28892e-05	1	5.22326e-06	39	5.2005	1.2608e-08
2	1	0	0	0	18.1116	-0.390555	-0.390355	-8.98227e-05	1	5.01323e-06	39	6.6005	3.50628e-08
2	0	0	1	0	19.5118	-0.397556	-0.397325	-6.65405e-05	1	4.78893e-06	39	8.0007	2.64382e-08
2	0	0	0	0	20.912	-0.404557	-0.404344	-0.000132755	1	4.52276e-06	39	9.4009	5.36786e-08
2	1	0	0	0	22.312	-0.411557	-0.411352	-0.000121342	1	4.23754e-06	39	10.8009	4.99144e-08
2	1	0	1	0	23.7122	-0.418558	-0.418333	-0.000148977	1	3.92625e-06	39	12.2011	6.2322e-08
2	0	0	1	0	25.1123	-0.425559	-0.425354	-0.00016575	1	3.5871e-06	39	13.6012	7.05023e-08
2	0	0	0	0	26.5124	-0.432559	-0.432349	-0.000207985	1	3.13071e-06	39	15.0013	8.99219e-08
2	0	0	1	0	27.9126	-0.43956	-0.439354	-0.000318485	1	2.61369e-06	39	16.4015	1.39928e-07
2	0	0	1	0	29.3126	-0.44656	-0.446327	-0.000366148	1	2.03241e-06	39	17.8015	1.63422e-07
2	0	0	0	0	30.7128	-0.453561	-0.45334	-0.000355992	1	1.41727e-06	39	19.2017	1.61385e-07
2	0	0	1	0	32.113	-0.460562	-0.460335	-0.000350522	1	7.96741e-07	39	20.6019	1.61357e-07
2	0	0	1	0	33.513	-0.467562	-0.467344	-0.000467361	1	1.05004e-07	39	22.0019	2.18418e-07
2	0	0	0	0	34.9132	-0.474563	-0.474347	-0.000486909	1	-5.8804e-07	39	23.4021	2.30964e-07
2	1	0	0	0	36.3132	-0.481563	-0.481339	-0.000433958	1	-1.27367e-06	39	24.8021	2.08881e-07
2	0	0	1	0	37.7134	-0.488564	-0.48836	-0.000435083	1	-2.01435e-06	39	26.2023	2.12477e-07
2	0	0	0	0	39.1136	-0.495565	-0.495359	-0.000431759	1	-2.76623e-06	39	27.6025	2.13876e-07
2	0	0	0	0	40.5136	-0.502565	-0.502353	-0.00046917	1	-3.53771e-06	39	29.0025	2.35689e-07
2	0	0	1	0	41.9138	-0.509566	-0.50935	-0.000606164	1	-4.42318e-06	39	30.4027	3.08749e-07
2	0	0	1	0	43.314	-0.516567	-0.516355	-0.000613259	1	-5.44176e-06	39	31.8029	3.16659e-07
2	0	0	0	0	44.714	-0.523567	-0.523342	-0.000654363	1	-6.4851e-06	39	33.2029	3.42456e-07
2	0	0	1	0	46.1142	-0.530568	-0.530362	-0.000678131	1	-7.55091e-06	39	34.6031	3.59655e-07
2	0	0	1	0	47.5142	-0.537568	-0.537346	-0.000682589	1	-8.66009e-06	39	36.0031	3.66786e-07
2	0	0	0	0	48.9144	-0.544569	-0.544349	-0.000703189	1	-9.77441e-06	39	37.4033	3.8278e-07
2	0	0	1	0	50.3146	-0.55157	-0.551333	-0.000723201	1	-1.09383e-05	39	38.8035	3.98725e-07
2	0	0	1	0	51.7146	-0.55857	-0.55837	-0.000779815	1	-1.21494e-05	39	40.2035	4.35425e-07
2	0	0	0	0	53.1148	-0.565571	-0.56536	-0.000807165	1	-1.34147e-05	39	41.6037	4.56338e-07
2	0	0	1	0	54.5149	-0.572572	-0.572352	-0.000819834	1	-1.47062e-05	39	43.0038	4.69233e-07
2	0	0	1	0	55.915	-0.579572	-0.57936	-0.000867618	1	-1.60497e-05	39	44.4039	5.02663e-07
2	0	0	0	0	57.3152	-0.586573	-0.586343	-0.000889636	1	-1.74283e-05	39	45.8041	5.21632e-07
2	0	0	0	0	58.7152	-0.593573	-0.593348	-0.000944433	1	-1.8881e-05	39	47.2041	5.60378e-07
2	0	0	1	0	60.1154	-0.600574	-0.600358	-0.000955564	1	-2.03766e-05	39	48.6043	5.7368e-07
2	0	0	0	0	61.5156	-0.607575	-0.607354	-0.00101959	1	-2.19297e-05	39	50.0045	6.1925e-07
2	0	0	0	0	62.9156	-0.614575	-0.614337	-0.0010638	1	-2.35495e-05	39	51.4045	6.53531e-07
2	0	0	1	0	64.3158	-0.621576	-0.621361	-0.00101068	1	-2.52013e-05	39	52.8047	6.27995e-07
2	0	0	1	0	65.7158	-0.628576	-0.628345	-0.000991654	1	-2.67656e-05	39	54.2047	6.23101e-07
2	0	0	0	0	67.116	-0.635577	-0.635341	-0.000989726	1	-2.83219e-05	39	55.6049	6.28813e-07
2	0	0	1	0	68.5162	-0.642578	-0.642366	-0.000984534	1	-2.98891e-05	39	57.0051	6.32431e-07
2	0	0	1	0	69.9162	-0.649578	-0.649345	-0.000998418	1	-3.14622e-05	39	58.4051	6.48318e-07
2	0	0	0	0	71.3164	-0.656579	-0.65635	-0.00102879	1	-3.30594e-05	39	59.8053	6.75248e-07
2	0	0	1	0	72.7165	-0.663579	-0.663354	-0.00107501	1	-3.47264e-05	39	61.2054	7.13115e-07
2	0	0	1	0	74.1166	-0.67058	-0.670347	-0.0011284	1	-3.64098e-05	39	62.6055	7.56419e-07
2	0	0	0	0	75.5168	-0.677581	-0.67735	-0.00114493	1	-3.81946e-05	39	64.0057	7.75518e-07
2	0	0	0	0	76.9168	-0.684581	-0.684361	-0.00117374	1	-3.99961e-05	39	65.4057	8.03261e-07
2	0	0	1	0	78.317	-0.691582	-0.691358	-0.00127129	1	-4.1876e-05	39	66.8059	8.78915e-07
2	0	0	0	0	79.7172	-0.698583	-0.698345	-0.00133813	1	-4.38432e-05	39	68.2061	9.34478e-07
2	0	0	0	0	81.1172	-0.705583	-0.705364	-0.00143602	1	-4.59113e-05	39	69.6061	1.01291e-06
2	0	0	1	0	82.5174	-0.712584	-0.712358	-0.00192665	1	-4.82617e-05	39	71.0063	1.37246e-06
2	0	0	1	0	83.9174	-0.719585	-0.719338	-0.00209701	1	-5.1277e-05	39	72.4063	1.50846e-06
2	0	0	0	0	85.3176	-0.726585	-0.726326	-0.00218392	1	-5.44571e-05	39	73.8065	1.58624e-06
2	0	0	1	0	86.7178	-0.733586	-0.733372	-0.00228751	1	-5.77772e-05	39	75.2067	1.6776e-06
2	0	0	1	0	88.1178	-0.740586	-0.740369	-0.00240859	1	-6.12672e-05	39	76.6067	1.78324e-06
2	0	0	0	0	89.518	-0.747587	-0.747366	-0.00254338	1	-6.49462e-05	39	78.0069	1.90084e-06
2	0	0	1	0	90.9181	-0.754587	-0.75436	-0.00266136	1	-6.88264e-05	39	79.407	2.00762e-06
2	0	0	1	0	92.3182	-0.761588	-0.761357	-0.00287501	1	-7.29151e-05	39	80.8071	2.1889e-06
2	0	0	0	0	93.7184	-0.768589	-0.768339	-0.00299471	1	-7.72662e-05	39	82.2073	2.30095e-06
2	0	0	0	0	95.1184	-0.775589	-0.775351	-0.00320262	1	-8.18395e-05	39	83.6073	2.48316e-06
2	0	0	1	0	96.5186	-0.78259	-0.78235	-0.00342079	1	-8.671e-05	39	85.0075	2.67626e-06
2	0	0	0	0	97.9188	-0.789591	-0.789355	-0.00363429	1	-9.19082e-05	39	86.4077	2.86874e-06
2	0	0	0	0	99.3188	-0.796591	-0.796375	-0.00389546	1	-9.74171e-05	39	87.8077	3.10225e-06
2	0	0	1	0	100.719	-0.803592	-0.803368	-0.00417157	1	-0.000103277	39	89.2079	3.35131e-06
2	0	0	1	0	102.119	-0.810592	-0.810374	-0.00447497	1	-0.000109563	39	90.6079	3.6264e-06
2	0	0	0	0	103.519	-0.817593	-0.817367	-0.00477635	1	-0.000116297	39	92.0081	3.90403e-06
2	0	0	1	0	104.919	-0.824594	-0.824375	-0.00512703	1	-0.000123506	39	93.4083	4.22659e-06
2	0	0	1	0	106.319	-0.831594	-0.831382	-0.00554789	1	-0.000131247	39	94.8083	4.61241e-06
2	0	0	0	0	107.72	-0.838595	-0.838381	-0.00596164	1	-0.000139576	39	96.2085	4.99813e-06
2	0	0	1	0	109.12	-0.845596	-0.845373	-0.00643263	1	-0.000148543	39	97.6087	5.43797e-06
2	0	0	1	0	110.52	-0.852596	-0.852394	-0.00687135	1	-0.000158159	39	99.0087	5.8571e-06
2	0	0	0	0	111.92	-0.859597	-0.859399	-0.00725512	1	-0.000168358	39	100.409	6.23505e-06
2	0	0	0	0	113.32	-0.866597	-0.866385	-0.00758865	1	-0.000179018	39	101.809	6.57469e-06
2	0	0	1	0	114.72	-0.873598	-0.873387	-0.00776852	1	-0.000190032	39	103.209	6.78493e-06
2	0	0	0	0	116.12	-0.880599	-0.880365	-0.00792098	1	-0.000201286	39	104.609	6.97335e-06
2	0	0	0	0	117.52	-0.887599	-0.887388	-0.00809086	1	-0.000212767	39	106.009	7.17973e-06
2	0	0	1	0	118.921	-0.8946	-0.894395	-0.00830205	1	-0.000224559	39	107.409	7.42531e-06
2	0	0	1	0	120.321	-0.901601	-0.901388	-0.00864228	1	-0.000236697	39	108.81	7.79005e-06
2	0	0	0	0	121.721	-0.908601	-0.908381	-0.00899598	1	-0.000249329	39	110.21	8.17177e-06
2	0	0	1	0	123.121	-0.915602	-0.915383	-0.0094289	1	-0.000262512	39	111.61	8.63106e-06
2	0	0	1	0	124.521	-0.922602	-0.922374	-0.00988087	1	-0.000276319	39	113.01	9.11386e-06
2	0	0	0	0	125.921	-0.929603	-0.929391	-0.0104123	1	-0.000290822	39	114.41	9.67711e-06
2	0	0	1	0	127.321	-0.936604	-0.936388	-0.0109917	1	-0.000306102	39	115.81	1.02925e-05
2	0	0	1	0	128.721	-0.943604	-0.943388	-0.0116385	1	-0.000322235	39	117.21	1.09796e-05
2	0	0	0	0	130.122	-0.950605	-0.950401	-0.0122993	1	-0.000339331	39	118.61	1.16893e-05
2	0	0	1	0	131.522	-0.957606	-0.95738	-0.0130682	1	-0.000357404	39	120.011	1.25112e-05
2	0	0	1	0	132.922	-0.964606	-0.964388	-0.0139496	1	-0.000376644	39	121.411	1.34528e-05
2	0	0	0	0	134.322	-0.971607	-0.971373	-0.0147711	1	-0.000397052	39	122.811	1.43483e-05
2	0	0	0	0	135.722	-0.978607	-0.978388	-0.0157024	1	-0.000418674	39	124.211	1.53631e-05
2	0	0	1	0	137.122	-0.985608	-0.98538	-0.0166524	1	-0.000441638	39	125.611	1.64089e-05
2	0	0	0	0	138.522	-0.992609	-0.992394	-0.0173441	1	-0.000465688	39	127.011	1.72122e-05
2	0	0	0	0	139.922	-0.999609	-0.999396	-0.0179188	1	-0.000490661	39	128.411	1.7908e-05
2	0	0	1	0	141.323	-1.00661	-1.00639	-0.0178821	1	-0.000516034	39	129.811	1.79962e-05
2	0	0	1	0	142.723	-1.01361	-1.01341	-0.0174935	1	-0.000541175	39	131.211	1.77281e-05
2	0	0	0	0	144.123	-1.02061	-1.02038	-0.0166924	1	-0.000565421	39	132.612	1.70326e-05
2	0	0	1	0	145.523	-1.02761	-1.02739	-0.0154592	1	-0.000588213	39	134.012	1.58827e-05
2	0	0	1	0	146.923	-1.03461	-1.03439	-0.0141781	1	-0.000609228	39	135.412	1.46656e-05
2	0	0	0	0	148.323	-1.04161	-1.04141	-0.0128923	1	-0.000628414	39	136.812	1.34261e-05
2	0	0	1	0	149.723	-1.04861	-1.04841	-0.0118549	1	-0.000645946	39	138.212	1.24288e-05
2	0	0	1	0	151.123	-1.05561	-1.0554	-0.0111222	1	-0.000662226	39	139.612	1.17384e-05
2	0	0	0	0	152.524	-1.06261	-1.06239	-0.0104946	1	-0.000677551	39	141.012	1.11493e-05
2	0	0	0	0	153.924	-1.06962	-1.06939	-0.0100227	1	-0.000692173	39	142.412	1.07182e-05
2	0	0	1	0	155.324	-1.07662	-1.07641	-0.0097057	1	-0.000706295	39	143.813	1.04473e-05
2	0	0	0	0	156.724	-1.08362	-1.08337	-0.00939226	1	-0.00071992	39	145.213	1.01753e-05
2	0	0	0	0	158.124	-1.09062	-1.0904	-0.00923795	1	-0.000733208	39	146.613	1.00731e-05
2	0	0	1	0	159.524	-1.09762	-1.09739	-0.00908597	1	-0.000746274	39	148.013	9.97088e-06
2	0	0	1	0	160.924	-1.10462	-1.10438	-0.00896237	1	-0.00075915	39	149.413	9.89787e-06
2	0	0	0	0	162.324	-1.11162	-1.11139	-0.00888262	1	-0.00077189	39	150.813	9.87208e-06
2	0	0	1	0	163.725	-1.11862	-1.11839	-0.00885836	1	-0.000784545	39	152.213	9.90709e-06
2	0	0	1	0	165.125	-1.12562	-1.12537	-0.00886707	1	-0.000797174	39	153.613	9.97871e-06
2	0	0	0	0	166.525	-1.13262	-1.13238	-0.00885812	1	-0.000809818	39	155.014	1.00307e-05
2	0	0	1	0	167.925	-1.13962	-1.13937	-0.00882185	1	-0.000822464	39	156.414	1.00514e-05
2	0	0	1	0	169.325	-1.14662	-1.14637	-0.0088684	1	-0.0008351	39	157.814	1.01665e-05
2	0	0	0	0	170.725	-1.15362	-1.15336	-0.00893664	1	-0.000847833	39	159.214	1.03072e-05
2	0	0	0	0	172.125	-1.16062	-1.1604	-0.00907699	1	-0.000860667	39	160.614	1.05329e-05
2	0	0	1	0	173.525	-1.16762	-1.16739	-0.0101934	1	-0.000874139	39	162.014	1.18997e-05
2	0	0	0	0	174.926	-1.17462	-1.17438	-0.0192202	1	-0.000893446	39	163.414	2.25718e-05
2	0	0	0	0	176.326	-1.18163	-1.18139	-0.0312116	1	-0.000930208	39	164.814	3.68729e-05
2	0	0	1	0	177.726	-1.18863	-1.18838	-0.0346961	1	-0.000977203	39	166.215	4.12322e-05
2	0	0	1	0	179.126	-1.19563	-1.19539	-0.036402	1	-0.00102731	39	167.615	4.35146e-05
2	0	0	0	0	180.526	-1.20263	-1.20238	-0.0378882	1	-0.00107955	39	169.015	4.5556e-05
2	0	0	1	0	181.926	-1.20963	-1.20939	-0.0398725	1	-0.00113419	39	170.415	4.82215e-05
2	0	0	1	0	183.326	-1.21663	-1.21635	-0.0425277	1	-0.00119201	39	171.815	5.17283e-05
2	0	0	0	0	184.726	-1.22363	-1.22338	-0.0466945	1	-0.00125457	39	173.215	5.7125e-05
2	0	0	1	0	186.126	-1.23063	-1.23035	-0.0528541	1	-0.00132423	39	174.615	6.50291e-05
2	0	0	1	0	187.527	-1.23763	-1.23738	-0.0613207	1	-0.0014042	39	176.015	7.58769e-05
2	0	0	0	0	188.927	-1.24463	-1.24439	-0.0729177	1	-0.00149795	39	177.416	9.0738e-05
2	0	0	0	0	190.327	-1.25163	-1.25135	-0.0865588	1	-0.00161007	39	178.816	0.000108315
2	0	0	1	0	191.727	-1.25863	-1.25839	-0.103899	1	-0.00174315	39	180.216	0.000130746
2	0	0	0	0	193.127	-1.26563	-1.26537	-0.125982	1	-0.00190388	39	181.616	0.000159414
2	0	0	0	0	194.527	-1.27263	-1.2724	-0.151843	1	-0.00209814	39	183.016	0.000193205
2	0	0	1	0	195.927	-1.27963	-1.27939	-0.184244	1	-0.00233308	39	184.416	0.000235719
2	0	0	1	0	197.328	-1.28663	-1.2864	-0.223155	1	-0.00261794	39	185.816	0.000287066
2	0	0	0	0	198.728	-1.29364	-1.2934	-0.271292	1	-0.00296349	39	187.216	0.000350888
2	0	0	1	0	200.128	-1.30064	-1.3004	-0.328423	1	-0.00338373	39	188.617	0.00042708
2	0	0	1	0	201.528	-1.30764	-1.3074	-0.40244	1	-0.00389433	39	190.017	0.000526151
2	0	0	0	0	202.928	-1.31464	-1.31438	-0.506949	1	-0.00452209	39	191.417	0.000666326
2	0	0	1	0	204.328	-1.32164	-1.32139	-0.698393	1	-0.00535885	39	192.817	0.000922851
2	0	0	1	0	205.728	-1.32864	-1.3284	-0.975962	1	-0.00652195	39	194.217	0.00129647
2	0	0	0	0	207.128	-1.33564	-1.33539	-1.32588	1	-0.00812929	39	195.617	0.00177057
2	0	0	0	0	208.528	-1.34264	-1.34241	-1.73913	1	-0.0102718	39	197.017	0.00233462
2	0	0	1	0	209.909	-1.34954	-1.34929	-2.16076	1	-0.0129631	39	198.397	0.0029155
2	0	0	1	1	211.109	-1.34444	-1.3442	-2.06037	2	-0.0155195	39	199.598	0.00276955
2	0	0	1	1	212.509	-1.33744	-1.33719	-1.86426	2	-0.0182655	39	200.998	0.00249287
2	0	0	0	1	213.91	-1.33044	-1.33019	-1.67736	2	-0.0207429	39	202.398	0.0022312
2	0	0	0	1	215.31	-1.32344	-1.3232	-1.49872	2	-0.0229625	39	203.798	0.00198311
2	0	0	1	1	216.71	-1.31644	-1.31616	-1.33974	2	-0.024945	39	205.199	0.00176331
2	0	0	1	1	218.11	-1.30944	-1.30918	-1.19857	2	-0.0267176	39	206.599	0.00156914
2	0	0	0	1	219.51	-1.30244	-1.30219	-1.07636	2	-0.028306	39	207.999	0.00140163
2	0	0	1	1	220.91	-1.29544	-1.29521	-0.971899	2	-0.0297372	39	209.399	0.00125881
2	0	0	1	1	222.31	-1.28843	-1.28818	-0.881504	2	-0.0310309	39	210.799	0.00113554
2	0	0	0	1	223.71	-1.28143	-1.28119	-0.804908	2	-0.0322087	39	212.199	0.00103124
2	0	0	1	1	225.111	-1.27443	-1.27418	-0.741193	2	-0.0332883	39	213.599	0.000944412
2	0	0	1	1	226.511	-1.26743	-1.26718	-0.686518	2	-0.0342859	39	214.999	0.00086994
2	0	0	0	1	227.911	-1.26043	-1.26016	-0.641432	2	-0.0352142	39	216.4	0.000808307
2	0	0	1	1	229.311	-1.25343	-1.25317	-0.601312	2	-0.0360821	39	217.8	0.000753549
2	0	0	1	1	230.711	-1.24643	-1.24619	-0.567441	2	-0.0368988	39	219.2	0.000707139
2	0	0	0	1	232.111	-1.23943	-1.23916	-0.536449	2	-0.0376704	39	220.6	0.000664748
2	0	0	0	1	233.511	-1.23243	-1.23218	-0.508495	2	-0.0384005	39	222	0.000626559
2	0	0	1	1	234.911	-1.22543	-1.22516	-0.481563	2	-0.0390926	39	223.4	0.000589994
2	0	0	0	1	236.312	-1.21843	-1.21818	-0.456035	2	-0.0397485	39	224.8	0.000555535
2	0	0	0	1	237.712	-1.21143	-1.21119	-0.429934	2	-0.0403679	39	226.2	0.000520731
2	0	0	1	1	239.112	-1.20443	-1.2042	-0.402966	2	-0.0409506	39	227.601	0.000485251
2	0	0	1	1	240.512	-1.19743	-1.19718	-0.375445	2	-0.0414945	39	229.001	0.000449475
2	0	0	0	1	241.912	-1.19043	-1.1902	-0.345687	2	-0.0419986	39	230.401	0.000411437
2	0	0	1	1	243.312	-1.18343	-1.18318	-0.315426	2	-0.042461	39	231.801	0.000373207
2	0	0	1	1	244.712	-1.17642	-1.17619	-0.284216	2	-0.0428801	39	233.201	0.000334291
2	0	0	0	1	246.112	-1.16942	-1.1692	-0.252344	2	-0.0432551	39	234.601	0.000295041
2	0	0	1	1	247.513	-1.16242	-1.16219	-0.220708	2	-0.0435854	39	236.001	0.000256504
2	0	0	1	1	248.913	-1.15542	-1.1552	-0.190934	2	-0.0438727	39	237.401	0.000220567
2	0	0	0	1	250.313	-1.14842	-1.14819	-0.163751	2	-0.0441201	39	238.802	0.000188018
2	0	0	0	1	251.713	-1.14142	-1.14119	-0.139458	2	-0.0443314	39	240.202	0.000159147
2	0	0	1	1	253.113	-1.13442	-1.13417	-0.118554	2	-0.0445112	39	241.602	0.00013446
2	0	0	0	1	254.513	-1.12742	-1.12718	-0.100479	2	-0.0446638	39	243.002	0.000113257
2	0	0	0	1	255.913	-1.12042	-1.12018	-0.0850394	2	-0.0447928	39	244.402	9.52597e-05
2	0	0	1	1	257.313	-1.11342	-1.11317	-0.0719447	2	-0.0449021	39	245.802	8.00867e-05
2	0	0	1	1	258.713	-1.10642	-1.10618	-0.0606423	2	-0.0449942	39	247.202	6.7081e-05
2	0	0	0	1	260.114	-1.09942	-1.09916	-0.0509735	2	-0.0450717	39	248.602	5.60281e-05
2	0	0	1	1	261.514	-1.09242	-1.09219	-0.0425586	2	-0.0451365	39	250.003	4.64822e-05
2	0	0	1	1	262.914	-1.08542	-1.08519	-0.0353456	2	-0.0451904	39	251.403	3.83566e-05
2	0	0	0	1	264.314	-1.07842	-1.07819	-0.0288546	2	-0.0452348	39	252.803	3.11108e-05
2	0	0	1	1	265.714	-1.07142	-1.0712	-0.0227817	2	-0.0452704	39	254.203	2.44037e-05
2	0	0	1	1	267.114	-1.06441	-1.06418	-0.0175099	2	-0.045298	39	255.603	1.86336e-05
2	0	0	0	1	268.514	-1.05741	-1.0572	-0.0123665	2	-0.0453184	39	257.003	1.30739e-05
2	0	0	0	1	269.914	-1.05041	-1.05019	-0.00653581	2	-0.045331	39	258.403	6.86383e-06
2	1	0	1	1	271.315	-1.04341	-1.04321	-0.000238786	2	-0.0453351	39	259.803	2.49104e-07
2	1	0	0	1	272.715	-1.03641	-1.03619	0.0053028	2	-0.0453307	39	1.2002	-5.4947e-06
2	1	0	0	1	274.115	-1.02941	-1.02918	0.0104878	2	-0.0453191	39	2.6002	-1.07938e-05
2	1	0	1	1	275.515	-1.02241	-1.02218	0.0159112	2	-0.0453001	39	4.0004	-1.62642e-05
2	1	0	1	1	276.915	-1.01541	-1.01518	0.0215681	2	-0.0452734	39	5.4004	-2.18956e-05
2	1	0	0	1	278.315	-1.00841	-1.00818	0.0275965	2	-0.0452385	39	6.8006	-2.78221e-05
2	1	0	1	1	279.715	-1.00141	-1.00117	0.0338921	2	-0.0451949	39	8.2008	-3.39316e-05
2	1	0	1	1	281.115	-0.994409	-0.994176	0.0401107	2	-0.0451426	39	9.6008	-3.98771e-05
2	1	0	0	1	282.516	-0.987408	-0.987179	0.0459151	2	-0.045082	39	11.001	-4.53264e-05
2	1	0	1	1	283.916	-0.980407	-0.980177	0.0511853	2	-0.0450136	39	12.4012	-5.01706e-05
2	1	0	1	1	285.316	-0.973407	-0.97318	0.0556767	2	-0.0449383	39	13.8012	-5.41834e-05
2	1	0	0	1	286.716	-0.966406	-0.96618	0.0596943	2	-0.0448572	39	15.2014	-5.76754e-05
2	1	0	0	1	288.116	-0.959406	-0.959159	0.0623417	2	-0.0447713	39	16.6014	-5.97956e-05
2	1	0	1	1	289.516	-0.952405	-0.952181	0.0640449	2	-0.0446824	39	18.0016	-6.09823e-05
2	1	0	0	1	290.916	-0.945404	-0.945187	0.0641189	2	-0.0445923	39	19.4018	-6.06043e-05
2	1	0	0	1	292.316	-0.938404	-0.938176	0.0634274	2	-0.0445027	39	20.8018	-5.95061e-05
2	1	0	1	1	293.717	-0.931403	-0.931161	0.0625823	2	-0.0444143	39	22.202	-5.82742e-05
2	1	0	1	1	295.117	-0.924403	-0.924174	0.0618927	2	-0.0443269	39	23.6021	-5.71996e-05
2	1	0	0	1	296.517	-0.917402	-0.917168	0.0613142	2	-0.0442404	39	25.0022	-5.62354e-05
2	1	0	1	1	297.917	-0.910401	-0.910182	0.0603431	2	-0.0441549	39	26.4024	-5.49232e-05
2	1	0	1	1	299.317	-0.903401	-0.903159	0.0583883	2	-0.0440713	39	27.8024	-5.27339e-05
2	1	0	0	1	300.717	-0.8964	-0.896159	0.054163	2	-0.0439919	39	29.2026	-4.85387e-05
2	1	0	1	1	302.117	-0.889399	-0.889169	0.0470157	2	-0.0439205	39	30.6028	-4.18049e-05
2	1	0	1	1	303.517	-0.882399	-0.88219	0.0371656	2	-0.0438613	39	32.0028	-3.27871e-05
2	1	0	0	1	304.918	-0.875398	-0.87517	0.0264753	2	-0.0438168	39	33.403	-2.31704e-05
2	1	0	1	1	306.318	-0.868397	-0.868172	0.0181659	2	-0.0437857	39	34.8031	-1.57712e-05
2	1	0	1	1	307.718	-0.861397	-0.861181	0.0135533	2	-0.0437638	39	36.2032	-1.16718e-05
2	1	0	0	1	309.118	-0.854396	-0.85418	0.0117321	2	-0.0437461	39	37.6034	-1.00213e-05
2	1	0	0	1	310.518	-0.847396	-0.847168	0.0114509	2	-0.0437299	39	39.0034	-9.70083e-06
2	1	0	1	1	311.918	-0.840395	-0.840181	0.0119501	2	-0.0437134	39	40.4036	-1.00402e-05
2	1	0	1	1	313.318	-0.833394	-0.833192	0.0129963	2	-0.0436958	39	41.8038	-1.08284e-05
2	1	0	0	1	314.718	-0.826394	-0.826179	0.0142709	2	-0.0436766	39	43.2038	-1.17903e-05
2	1	0	1	1	316.119	-0.819393	-0.819157	0.0157197	2	-0.0436554	39	44.604	-1.28769e-05
2	1	0	1	1	317.519	-0.812392	-0.812163	0.0171031	2	-0.0436322	39	46.0041	-1.38905e-05
2	1	0	0	1	318.919	-0.805392	-0.805157	0.0180922	2	-0.0436074	39	47.4042	-1.4567e-05
2	1	0	1	1	320.319	-0.798391	-0.798162	0.0184875	2	-0.0435816	39	48.8044	-1.4756e-05
2	1	0	1	1	321.719	-0.791391	-0.791147	0.0181925	2	-0.0435557	39	50.2044	-1.4393e-05
2	1	0	0	1	323.119	-0.78439	-0.784157	0.0173736	2	-0.0435306	39	51.6046	-1.36237e-05
2	1	0	1	1	324.519	-0.77739	-0.777163	0.0161956	2	-0.0435069	39	53.0047	-1.25866e-05
2	1	0	1	1	325.919	-0.770389	-0.770155	0.0147386	2	-0.0434851	39	54.4048	-1.1351e-05
2	1	0	0	1	327.32	-0.763388	-0.763132	0.0131593	2	-0.0434655	39	55.805	-1.00423e-05
2	1	0	0	1	328.72	-0.756388	-0.756139	0.0116878	2	-0.0434479	39	57.205	-8.83764e-06
2	1	0	1	1	330.12	-0.749387	-0.749172	0.0102519	2	-0.0434325	39	58.6052	-7.68044e-06
2	1	0	0	1	331.52	-0.742386	-0.742155	0.00900311	2	-0.0434189	39	60.0054	-6.6817e-06
2	1	0	0	1	332.92	-0.735386	-0.735171	0.00794936	2	-0.0434069	39	61.4054	-5.84414e-06
2	1	0	1	1	334.32	-0.728385	-0.728146	0.0071069	2	-0.0433963	39	62.8056	-5.17486e-06
2	1	0	1	1	335.72	-0.721384	-0.72116	0.00642365	2	-0.0433867	39	64.2057	-4.63248e-06
2	1	0	0	1	337.12	-0.714384	-0.714152	0.00583386	2	-0.0433781	39	65.6058	-4.16626e-06
2	1	0	1	1	338.521	-0.707383	-0.707149	0.00536166	2	-0.0433701	39	67.006	-3.79149e-06
2	1	0	1	1	339.921	-0.700383	-0.700155	0.00498242	2	-0.0433628	39	68.406	-3.48847e-06
2	1	0	0	1	341.321	-0.693382	-0.693165	0.00459636	2	-0.0433559	39	69.8062	-3.18603e-06
2	1	0	1	1	342.721	-0.686381	-0.686162	0.00416244	2	-0.0433497	39	71.2064	-2.85611e-06
2	1	0	1	1	344.121	-0.679381	-0.679136	0.00379062	2	-0.043344	39	72.6064	-2.57434e-06
2	1	0	0	1	345.521	-0.67238	-0.67217	0.00347968	2	-0.0433388	39	74.0066	-2.33893e-06
2	1	0	0	1	346.921	-0.66538	-0.665147	0.003266	2	-0.0433339	39	75.4066	-2.17237e-06
2	1	0	1	1	348.321	-0.658379	-0.658152	0.00307619	2	-0.0433294	39	76.8068	-2.0246e-06
2	1	0	0	1	349.722	-0.651378	-0.651136	0.00284404	2	-0.0433251	39	78.207	-1.85186e-06
2	1	0	0	1	351.122	-0.644378	-0.644145	0.00274727	2	-0.043321	39	79.607	-1.76964e-06
2	1	0	1	1	352.522	-0.637377	-0.637149	0.00261338	2	-0.0433172	39	81.0072	-1.66511e-06
2	1	0	1	1	353.922	-0.630377	-0.630163	0.00247884	2	-0.0433135	39	82.4073	-1.56207e-06
2	1	0	0	1	355.322	-0.623376	-0.623166	0.0023381	2	-0.0433099	39	83.8074	-1.45702e-06
2	1	0	1	1	356.722	-0.616375	-0.616146	0.00222429	2	-0.0433066	39	85.2076	-1.37049e-06
2	1	0	1	1	358.122	-0.609375	-0.609135	0.00212045	2	-0.0433035	39	86.6076	-1.29164e-06
2	1	0	0	1	359.522	-0.602374	-0.602149	0.00205013	2	-0.0433004	39	88.0078	-1.23449e-06
2	1	0	1	1	360.923	-0.595374	-0.595135	0.00195639	2	-0.0432975	39	89.408	-1.16431e-06
2	1	0	1	1	362.323	-0.588373	-0.588154	0.00188436	2	-0.0432946	39	90.808	-1.1083e-06
2	1	0	0	1	363.723	-0.581372	-0.581154	0.00180212	2	-0.0432919	39	92.2082	-1.04731e-06
2	1	0	1	1	365.123	-0.574372	-0.57414	0.00179848	2	-0.0432893	39	93.6082	-1.03258e-06
2	1	0	1	1	366.523	-0.567371	-0.567131	0.00173466	2	-0.0432867	39	95.0084	-9.83781e-07
2	1	0	0	1	367.923	-0.56037	-0.560143	0.00170414	2	-0.0432842	39	96.4086	-9.5456e-07
2	1	0	0	1	369.323	-0.55337	-0.553152	0.00161964	2	-0.0432818	39	97.8086	-8.95905e-07
2	1	0	1	1	370.723	-0.546369	-0.546141	0.00159352	2	-0.0432795	39	99.2088	-8.70289e-07
2	1	0	1	1	372.123	-0.539369	-0.539139	0.00152529	2	-0.0432772	39	100.609	-8.22342e-07
2	1	0	0	1	373.524	-0.532368	-0.532143	0.00145818	2	-0.043275	39	102.009	-7.75961e-07
2	1	0	1	1	374.924	-0.525367	-0.52512	0.00136938	2	-0.0432729	39	103.409	-7.19091e-07
2	1	0	1	1	376.324	-0.518367	-0.518126	0.00136038	2	-0.0432708	39	104.809	-7.04849e-07
2	1	0	0	1	377.724	-0.511366	-0.511157	0.00134233	2	-0.0432688	39	106.209	-6.86141e-07
2	1	0	1	1	379.124	-0.504365	-0.504144	0.00131068	2	-0.0432668	39	107.61	-6.6077e-07
2	1	0	1	1	380.524	-0.497365	-0.497148	0.00129917	2	-0.0432649	39	109.01	-6.45877e-07
2	1	0	0	1	381.924	-0.490364	-0.490135	0.00125272	2	-0.0432631	39	110.41	-6.14003e-07
2	1	0	1	1	383.324	-0.483363	-0.483137	0.00123319	2	-0.0432612	39	111.81	-5.95801e-07
2	1	0	1	1	384.725	-0.476363	-0.476148	0.00121988	2	-0.0432594	39	113.21	-5.80845e-07
2	1	0	0	1	386.125	-0.469362	-0.469124	0.00118826	2	-0.0432576	39	114.61	-5.57441e-07
2	1	0	0	1	387.525	-0.462362	-0.462152	0.00117973	2	-0.0432559	39	116.01	-5.45214e-07
2	1	0	1	1	388.925	-0.455361	-0.455149	0.00108084	2	-0.0432542	39	117.41	-4.91945e-07
2	1	0	0	1	390.325	-0.44836	-0.448128	0.00110386	2	-0.0432525	39	118.811	-4.94672e-07
2	1	0	0	1	391.725	-0.44136	-0.441127	0.00107666	2	-0.0432509	39	120.211	-4.74946e-07
2	1	0	1	1	393.125	-0.434359	-0.434131	0.00104025	2	-0.0432493	39	121.611	-4.51605e-07
2	1	0	1	1	394.525	-0.427359	-0.427149	0.00103316	2	-0.0432477	39	123.011	-4.41315e-07
2	1	0	0	1	395.926	-0.420358	-0.420126	0.00101214	2	-0.0432462	39	124.411	-4.25226e-07
2	1	0	1	1	397.326	-0.413357	-0.413115	0.00101195	2	-0.0432447	39	125.811	-4.18051e-07
2	1	0	1	1	398.726	-0.406357	-0.406142	0.000977457	2	-0.0432432	39	127.211	-3.96986e-07
2	1	0	0	1	400.126	-0.399356	-0.399122	0.000984039	2	-0.0432417	39	128.611	-3.92751e-07
2	1	0	1	1	401.526	-0.392355	-0.392115	0.00097262	2	-0.0432403	39	130.012	-3.81379e-07
2	1	0	1	1	402.926	-0.385355	-0.385122	0.000954338	2	-0.0432389	39	131.412	-3.67537e-07
2	1	0	0	1	404.326	-0.378354	-0.378127	0.000938119	2	-0.0432375	39	132.812	-3.54729e-07
2	1	0	0	1	405.726	-0.371354	-0.371123	0.000928817	2	-0.0432361	39	134.212	-3.44706e-07
2	0	0	1	1	407.127	-0.364353	-0.364126	0.000938599	2	-0.0432346	39	135.612	-3.41768e-07
2	1	0	0	1	408.527	-0.357352	-0.357121	0.000898006	2	-0.0432333	39	137.012	-3.20697e-07
2	1	0	0	1	409.927	-0.350352	-0.350115	0.000885893	2	-0.0432319	39	138.412	-3.10164e-07
2	1	0	1	1	411.327	-0.343351	-0.343132	0.000844767	2	-0.0432306	39	139.812	-2.89866e-07
2	1	0	1	1	412.727	-0.33635	-0.336112	0.000857941	2	-0.0432294	39	141.212	-2.88364e-07
2	1	0	0	1	414.127	-0.32935	-0.329126	0.000870976	2	-0.043228	39	142.613	-2.86661e-07
2	1	0	1	1	415.527	-0.322349	-0.32213	0.000868725	2	-0.0432267	39	144.013	-2.79842e-07
2	1	0	1	1	416.927	-0.315349	-0.315118	0.00090037	2	-0.0432254	39	145.413	-2.83722e-07
2	1	0	0	1	418.328	-0.308348	-0.308126	0.000904022	2	-0.0432241	39	146.813	-2.78553e-07
2	1	0	1	1	419.728	-0.301348	-0.301125	0.000887467	2	-0.0432227	39	148.213	-2.67239e-07
2	1	0	0	1	420.908	-0.304548	-0.304328	0.000461754	2	-0.043222	39	149.394	-1.40525e-07
2	1	0	0	1	422.308	-0.311548	-0.311316	0.000334801	2	-0.0432216	39	150.794	-1.04229e-07
2	1	0	1	1	423.709	-0.318549	-0.318321	0.000244537	2	-0.0432213	39	152.194	-7.78413e-08
2	0	0	0	1	425.109	-0.32555	-0.325341	0.000174372	2	-0.0432211	39	153.594	-5.67302e-08
2	0	0	0	1	426.509	-0.33255	-0.33231	9.90857e-05	2	-0.0432209	39	154.994	-3.29271e-08
2	1	0	1	1	427.909	-0.339551	-0.339311	3.86616e-05	2	-0.0432209	39	0.000000000000000E+000	-1.31183e-08
2	0	0	1	1	429.309	-0.346552	-0.346318	3.04251e-06	2	-0.043221	39	1.2	-1.05367e-09
2	1	0	0	1	430.709	-0.353552	-0.353315	-4.78364e-05	2	-0.0432211	39	2.6002	1.69013e-08
2	0	0	1	1	432.109	-0.360553	-0.360335	-9.35778e-05	2	-0.0432213	39	4.0004	3.37193e-08
2	1	0	1	1	433.509	-0.367553	-0.367312	-0.000136552	2	-0.0432215	39	5.4004	5.01573e-08
2	1	0	0	1	434.91	-0.374554	-0.374335	-0.000158392	2	-0.0432218	39	6.8006	5.92916e-08
2	0	0	1	1	436.31	-0.381554	-0.381326	-0.00017475	2	-0.0432222	39	8.2007	6.66368e-08
2	0	0	1	1	437.71	-0.388555	-0.388337	-0.000204662	2	-0.0432225	39	9.6008	7.94779e-08
2	0	0	0	1	439.11	-0.395556	-0.395302	-0.000195668	2	-0.0432229	39	11.001	7.73479e-08
2	0	0	0	1	440.51	-0.402556	-0.402339	-0.000256055	2	-0.0432233	39	12.401	1.03021e-07
2	0	0	1	1	441.91	-0.409557	-0.409316	-0.000264824	2	-0.0432238	39	13.8012	1.08396e-07
2	0	0	0	1	443.31	-0.416558	-0.416324	-0.000307513	2	-0.0432242	39	15.2014	1.28025e-07
2	0	0	0	1	444.71	-0.423558	-0.42333	-0.000288553	2	-0.0432247	39	16.6014	1.22153e-07
2	0	0	1	1	446.111	-0.430559	-0.430313	-0.00028761	2	-0.0432253	39	18.0016	1.23762e-07
2	0	0	1	1	447.511	-0.43756	-0.437329	-0.000334699	2	-0.0432258	39	19.4017	1.46373e-07
2	0	0	0	1	448.911	-0.44456	-0.444321	-0.000342935	2	-0.0432263	39	20.8018	1.52373e-07
2	1	0	1	1	450.311	-0.451561	-0.451319	-0.000329798	2	-0.0432269	39	22.202	1.48844e-07
2	0	0	1	1	451.711	-0.458561	-0.458327	-0.000336906	2	-0.0432274	39	23.602	1.54413e-07
2	1	0	0	1	453.111	-0.465562	-0.465341	-0.000306345	2	-0.043228	39	25.0022	1.42555e-07
2	1	0	1	1	454.511	-0.472563	-0.472299	-0.000295475	2	-0.0432285	39	26.4024	1.39553e-07
2	0	0	1	1	455.911	-0.479563	-0.479328	-0.000310008	2	-0.043229	39	27.8024	1.48595e-07
2	1	0	0	1	457.312	-0.486564	-0.486331	-0.000335843	2	-0.0432296	39	29.2026	1.63331e-07
2	1	0	0	1	458.712	-0.493565	-0.493309	-0.000328434	2	-0.0432301	39	30.6026	1.6202e-07
2	0	0	1	1	460.112	-0.500565	-0.500329	-0.000335802	2	-0.0432307	39	32.0028	1.68012e-07
2	0	0	0	1	461.512	-0.507566	-0.507348	-0.000264165	2	-0.0432312	39	33.403	1.34023e-07
2	0	0	0	1	462.912	-0.514566	-0.514316	-0.000371101	2	-0.0432318	39	34.803	1.90863e-07
2	0	0	1	1	464.312	-0.521567	-0.521301	-0.000425116	2	-0.0432324	39	36.2032	2.21613e-07
2	0	0	1	1	465.712	-0.528567	-0.528318	-0.000395462	2	-0.0432331	39	37.6033	2.0893e-07
2	0	0	0	1	467.112	-0.535568	-0.535324	-0.000429795	2	-0.0432337	39	39.0034	2.30079e-07
2	0	0	1	1	468.513	-0.542569	-0.542327	-0.000359924	2	-0.0432344	39	40.4036	1.95196e-07
2	0	0	1	1	469.913	-0.549569	-0.549315	-0.000358892	2	-0.043235	39	41.8036	1.97145e-07
2	1	0	0	1	471.313	-0.55657	-0.556327	-0.000451052	2	-0.0432357	39	43.2038	2.50932e-07
2	0	0	1	1	472.713	-0.563571	-0.563349	-0.000490854	2	-0.0432365	39	44.604	2.76522e-07
2	0	0	1	1	474.113	-0.570571	-0.57031	-0.000526092	2	-0.0432373	39	46.004	3.00036e-07
2	1	0	0	1	475.513	-0.577572	-0.577331	-0.000534187	2	-0.0432382	39	47.4042	3.08403e-07
2	1	0	1	1	476.913	-0.584573	-0.584321	-0.000576976	2	-0.0432391	39	48.8043	3.37139e-07
2	0	0	1	1	478.313	-0.591573	-0.5913	-0.000568383	2	-0.04324	39	50.2044	3.36085e-07
2	0	0	0	1	479.714	-0.598574	-0.598329	-0.000564408	2	-0.0432409	39	51.6046	3.37701e-07
2	0	0	0	1	481.114	-0.605574	-0.605317	-0.000590917	2	-0.0432418	39	53.0046	3.57692e-07
2	0	0	1	1	482.514	-0.612575	-0.612322	-0.000616327	2	-0.0432428	39	54.4048	3.77391e-07
2	0	0	1	1	483.914	-0.619576	-0.619336	-0.000615433	2	-0.0432438	39	55.805	3.8116e-07
2	0	0	0	1	485.314	-0.626576	-0.626333	-0.000609107	2	-0.0432447	39	57.205	3.81504e-07
2	0	0	1	1	486.714	-0.633577	-0.633347	-0.000667718	2	-0.0432457	39	58.6052	4.22897e-07
2	0	0	1	1	488.114	-0.640578	-0.640332	-0.000683544	2	-0.0432468	39	60.0052	4.37695e-07
2	0	0	0	1	489.514	-0.647578	-0.647348	-0.000680713	2	-0.0432478	39	61.4054	4.40659e-07
2	0	0	1	1	490.915	-0.654579	-0.654356	-0.000667022	2	-0.0432489	39	62.8056	4.3647e-07
2	0	0	1	1	492.315	-0.661579	-0.661352	-0.000703639	2	-0.04325	39	64.2056	4.65353e-07
2	0	0	0	1	493.715	-0.66858	-0.668344	-0.000741368	2	-0.0432511	39	65.6058	4.95488e-07
2	0	0	1	1	495.115	-0.675581	-0.675333	-0.000779862	2	-0.0432523	39	67.0059	5.26666e-07
2	0	0	1	1	496.515	-0.682581	-0.682362	-0.000778701	2	-0.0432536	39	68.406	5.31356e-07
2	0	0	0	1	497.915	-0.689582	-0.68935	-0.000833258	2	-0.0432548	39	69.8062	5.74406e-07
2	0	0	0	1	499.315	-0.696582	-0.696361	-0.000867768	2	-0.0432561	39	71.2062	6.0428e-07
2	0	0	1	1	500.715	-0.703583	-0.703332	-0.000906755	2	-0.0432575	39	72.6064	6.3775e-07
2	1	0	0	1	502.116	-0.710584	-0.710339	-0.000925993	2	-0.0432589	39	74.0066	6.57769e-07
2	0	0	0	1	503.516	-0.717584	-0.717369	-0.000968668	2	-0.0432603	39	75.4066	6.94892e-07
2	0	0	1	1	504.916	-0.724585	-0.724363	-0.00100716	2	-0.0432618	39	76.8068	7.2955e-07
2	0	0	1	1	506.316	-0.731585	-0.731365	-0.00100718	2	-0.0432634	39	78.2068	7.3662e-07
2	0	0	0	1	507.716	-0.738586	-0.738369	-0.0011542	2	-0.0432651	39	79.607	8.52227e-07
2	0	0	1	1	509.116	-0.745587	-0.745363	-0.00118779	2	-0.0432668	39	81.0072	8.85337e-07
2	0	0	1	1	510.516	-0.752587	-0.752351	-0.00118648	2	-0.0432687	39	82.4072	8.92647e-07
2	0	0	0	1	511.916	-0.759588	-0.759345	-0.00128437	2	-0.0432705	39	83.8074	9.75278e-07
2	0	0	1	1	513.316	-0.766588	-0.76633	-0.00129806	2	-0.0432725	39	85.2075	9.94746e-07
2	0	0	1	1	514.717	-0.773589	-0.773357	-0.00145358	2	-0.0432747	39	86.6076	1.12414e-06
2	0	0	0	1	516.117	-0.78059	-0.780362	-0.00149918	2	-0.0432768	39	88.0078	1.1699e-06
2	0	0	0	1	517.517	-0.78759	-0.787334	-0.00154648	2	-0.0432791	39	89.4078	1.2176e-06
2	0	0	1	1	518.917	-0.794591	-0.794346	-0.00161887	2	-0.0432815	39	90.808	1.28594e-06
2	0	0	0	1	520.317	-0.801592	-0.801356	-0.00165985	2	-0.0432839	39	92.2082	1.33013e-06
2	0	0	0	1	521.717	-0.808592	-0.808371	-0.00168224	2	-0.0432864	39	93.6082	1.35987e-06
2	0	0	1	1	523.117	-0.815593	-0.815367	-0.00178629	2	-0.043289	39	95.0084	1.45648e-06
2	0	0	1	1	524.517	-0.822594	-0.822381	-0.00183463	2	-0.0432917	39	96.4085	1.50876e-06
2	0	0	0	1	525.918	-0.829594	-0.829356	-0.00193337	2	-0.0432944	39	97.8086	1.60345e-06
2	0	0	1	1	527.318	-0.836595	-0.836379	-0.00197595	2	-0.0432972	39	99.2088	1.65265e-06
2	0	0	1	1	528.718	-0.843595	-0.843361	-0.0020459	2	-0.0433002	39	100.609	1.72543e-06
2	0	0	0	1	530.118	-0.850596	-0.85037	-0.00211428	2	-0.0433032	39	102.009	1.79792e-06
2	0	0	1	1	531.518	-0.857597	-0.857361	-0.0022107	2	-0.0433064	39	103.409	1.89537e-06
2	0	0	1	1	532.918	-0.864597	-0.864387	-0.00225733	2	-0.0433097	39	104.809	1.95121e-06
2	0	0	0	1	534.318	-0.871598	-0.87137	-0.00233549	2	-0.043313	39	106.209	2.03507e-06
2	0	0	0	1	535.718	-0.878599	-0.878368	-0.00239332	2	-0.0433164	39	107.609	2.10221e-06
2	0	0	1	1	537.119	-0.885599	-0.88539	-0.00242471	2	-0.0433199	39	109.01	2.14681e-06
2	0	0	0	1	538.519	-0.8926	-0.892384	-0.00243929	2	-0.0433235	39	110.41	2.17679e-06
2	0	0	0	1	539.919	-0.8996	-0.899373	-0.00248666	2	-0.0433271	39	111.81	2.23644e-06
2	0	0	1	1	541.319	-0.906601	-0.906391	-0.00252248	2	-0.0433307	39	113.21	2.28636e-06
2	0	0	1	1	542.719	-0.913601	-0.913366	-0.00254683	2	-0.0433344	39	114.61	2.32619e-06
2	0	0	0	1	544.119	-0.920602	-0.920363	-0.00260995	2	-0.0433382	39	116.01	2.4021e-06
2	0	0	1	1	545.519	-0.927603	-0.927376	-0.00264046	2	-0.043342	39	117.41	2.4487e-06
2	0	0	1	1	546.919	-0.934603	-0.934377	-0.00264774	2	-0.0433458	39	118.81	2.47399e-06
2	0	0	0	1	548.32	-0.941604	-0.941387	-0.00267364	2	-0.0433497	39	120.211	2.51693e-06
2	0	0	1	1	549.72	-0.948605	-0.948368	-0.0026641	2	-0.0433536	39	121.611	2.52655e-06
2	0	0	1	1	551.12	-0.955605	-0.955365	-0.00272106	2	-0.0433575	39	123.011	2.59961e-06
2	0	0	0	1	552.52	-0.962606	-0.962373	-0.00276643	2	-0.0433615	39	124.411	2.66233e-06
2	0	0	1	1	553.92	-0.969607	-0.969386	-0.00279698	2	-0.0433655	39	125.811	2.71135e-06
2	0	0	1	1	555.32	-0.976607	-0.976393	-0.00283354	2	-0.0433696	39	127.211	2.76665e-06
2	0	0	0	1	556.72	-0.983608	-0.983394	-0.00284528	2	-0.0433738	39	128.611	2.79803e-06
2	0	0	0	1	558.12	-0.990608	-0.9904	-0.00291721	2	-0.0433779	39	130.011	2.88921e-06
2	0	0	1	1	559.521	-0.997609	-0.997369	-0.00292253	2	-0.0433821	39	131.412	2.91484e-06
2	0	0	0	1	560.921	-1.00461	-1.00437	-0.00298856	2	-0.0433864	39	132.812	3.0016e-06
2	0	0	0	1	562.321	-1.01161	-1.01137	-0.00299341	2	-0.0433907	39	134.212	3.02745e-06
2	0	0	1	1	563.721	-1.01861	-1.01839	-0.00304145	2	-0.0433951	39	135.612	3.09737e-06
2	0	0	1	1	565.121	-1.02561	-1.02539	-0.00307372	2	-0.0433995	39	137.012	3.15175e-06
2	0	0	0	1	566.521	-1.03261	-1.03238	-0.00309741	2	-0.0434039	39	138.412	3.19771e-06
2	0	0	1	1	567.921	-1.03961	-1.03941	-0.00313708	2	-0.0434084	39	139.812	3.2607e-06
2	0	0	1	1	569.321	-1.04661	-1.0464	-0.00318393	2	-0.043413	39	141.212	3.33166e-06
2	0	0	0	1	570.722	-1.05361	-1.05339	-0.00327121	2	-0.0434177	39	142.613	3.44586e-06
2	0	0	1	1	572.122	-1.06061	-1.06038	-0.00332867	2	-0.0434224	39	144.013	3.52966e-06
2	0	0	1	1	573.522	-1.06762	-1.06738	-0.00339228	2	-0.0434273	39	145.413	3.62086e-06
2	0	0	0	1	574.922	-1.07462	-1.07439	-0.0034446	2	-0.0434322	39	146.813	3.70086e-06
2	0	0	0	1	576.322	-1.08162	-1.08139	-0.00341933	2	-0.0434372	39	148.213	3.69763e-06
2	0	0	1	1	577.722	-1.08862	-1.08839	-0.00355819	2	-0.0434422	39	149.613	3.87269e-06
2	0	0	0	1	579.122	-1.09562	-1.09541	-0.00362322	2	-0.0434474	39	151.013	3.96893e-06
2	0	0	0	1	580.522	-1.10262	-1.1024	-0.00366532	2	-0.0434527	39	152.413	4.04065e-06
2	0	0	1	1	581.923	-1.10962	-1.10939	-0.003761	2	-0.0434581	39	153.814	4.17242e-06
2	0	0	1	1	583.323	-1.11662	-1.11639	-0.00383259	2	-0.0434635	39	155.214	4.27866e-06
2	0	0	0	1	584.723	-1.12362	-1.1234	-0.00388331	2	-0.0434691	39	156.614	4.36251e-06
2	0	0	1	1	586.123	-1.13062	-1.13039	-0.0039585	2	-0.0434747	39	158.014	4.47466e-06
2	0	0	1	1	587.523	-1.13762	-1.1374	-0.00406221	2	-0.0434805	39	159.414	4.62034e-06
2	0	0	0	1	588.923	-1.14462	-1.14441	-0.00413737	2	-0.0434864	39	160.814	4.73485e-06
2	0	0	1	1	590.323	-1.15162	-1.15138	-0.00419384	2	-0.0434924	39	162.214	4.8287e-06
2	0	0	1	1	591.723	-1.15862	-1.15839	-0.00429172	2	-0.0434985	39	163.614	4.97147e-06
2	0	0	0	1	593.124	-1.16562	-1.16541	-0.0043874	2	-0.0435047	39	165.015	5.11314e-06
2	0	0	0	1	594.524	-1.17262	-1.17239	-0.00453312	2	-0.0435111	39	166.415	5.31456e-06
2	0	0	1	1	595.924	-1.17963	-1.17939	-0.00480171	2	-0.0435178	39	167.815	5.66309e-06
2	0	0	0	1	597.324	-1.18663	-1.18637	-0.00531257	2	-0.043525	39	169.215	6.30269e-06
2	0	0	0	1	598.724	-1.19363	-1.1934	-0.00590429	2	-0.043533	39	170.615	7.04616e-06
2	0	0	1	1	600.124	-1.20063	-1.2004	-0.00636907	2	-0.0435418	39	172.015	7.64541e-06
2	0	0	1	1	601.524	-1.20763	-1.2074	-0.00693886	2	-0.0435514	39	173.415	8.37796e-06
2	0	0	0	1	602.924	-1.21463	-1.21438	-0.00744484	2	-0.0435616	39	174.815	9.04085e-06
2	0	0	1	1	604.325	-1.22163	-1.22141	-0.00814881	2	-0.0435727	39	176.216	9.95306e-06
2	0	0	1	1	605.725	-1.22863	-1.22841	-0.00906158	2	-0.0435849	39	177.616	1.11313e-05
2	0	0	0	1	607.125	-1.23563	-1.2354	-0.0103219	2	-0.0435986	39	179.016	1.27517e-05
2	0	0	1	1	608.525	-1.24263	-1.24239	-0.012032	2	-0.0436143	39	180.416	1.49484e-05
2	0	0	1	1	609.925	-1.24963	-1.24938	-0.0141298	2	-0.0436328	39	181.816	1.76535e-05
2	0	0	0	1	611.325	-1.25663	-1.25638	-0.0167526	2	-0.0436545	39	183.216	2.10477e-05
2	0	0	0	1	612.725	-1.26363	-1.2634	-0.0199002	2	-0.0436804	39	184.616	2.5142e-05
2	0	0	1	1	614.125	-1.27063	-1.27039	-0.0235534	2	-0.0437109	39	186.016	2.99219e-05
2	0	0	0	1	615.526	-1.27763	-1.27738	-0.0277664	2	-0.043747	39	187.417	3.54683e-05
2	0	0	0	1	616.926	-1.28463	-1.2844	-0.0324351	2	-0.0437893	39	188.817	4.16596e-05
2	0	0	1	1	618.326	-1.29164	-1.2914	-0.03782	2	-0.0438386	39	190.217	4.88408e-05
2	0	0	1	1	619.726	-1.29863	-1.2984	-0.0436522	2	-0.0438957	39	191.617	5.66778e-05
2	0	0	0	1	621.126	-1.30564	-1.30541	-0.0500712	2	-0.0439615	39	193.017	6.53632e-05
2	0	0	1	1	622.526	-1.31264	-1.31239	-0.0575208	2	-0.044037	39	194.417	7.549e-05
2	0	0	1	1	623.926	-1.31964	-1.3194	-0.0659671	2	-0.0441235	39	195.817	8.70367e-05
2	0	0	0	1	625.326	-1.32664	-1.3264	-0.0760986	2	-0.044223	39	197.217	0.000100937
2	0	0	1	1	626.727	-1.33364	-1.33339	-0.0883372	2	-0.0443381	39	198.618	0.000117787
2	0	0	1	1	628.127	-1.34064	-1.34041	-0.104169	2	-0.0444726	39	200.018	0.000139629
2	0	0	0	1	629.527	-1.34764	-1.34739	-0.124556	2	-0.0446323	39	201.418	0.000167826
2	0	0	1	0	630.707	-1.34644	-1.3462	-0.128498	3	-0.0447854	39	202.598	0.000172984
2	0	0	0	0	632.108	-1.33944	-1.33921	-0.121536	3	-0.0449602	39	203.999	0.000162763
2	0	0	1	0	633.508	-1.33244	-1.3322	-0.114113	3	-0.045125	39	205.399	0.000152022
2	0	0	1	0	634.908	-1.32544	-1.32519	-0.106662	3	-0.0452793	39	206.799	0.000141347
2	0	0	0	0	636.308	-1.31844	-1.31818	-0.0993911	3	-0.0454233	39	208.199	0.000131015
2	0	0	0	0	637.708	-1.31144	-1.31119	-0.0926389	3	-0.0455575	39	209.599	0.000121467
2	0	0	1	0	639.108	-1.30444	-1.30418	-0.0864788	3	-0.0456824	39	210.999	0.000112784
2	0	0	0	0	640.508	-1.29744	-1.2972	-0.080451	3	-0.0457989	39	212.399	0.000104361
2	0	0	0	0	641.908	-1.29043	-1.29019	-0.0751407	3	-0.0459076	39	213.799	9.69458e-05
2	0	0	1	0	643.309	-1.28343	-1.2832	-0.0703036	3	-0.0460092	39	215.2	9.02132e-05
2	0	0	1	0	644.709	-1.27643	-1.27619	-0.0657398	3	-0.0461041	39	216.6	8.38967e-05
2	0	0	0	0	646.109	-1.26943	-1.2692	-0.0615966	3	-0.046193	39	218	7.81782e-05
2	0	0	1	0	647.509	-1.26243	-1.2622	-0.0577304	3	-0.0462764	39	219.4	7.28673e-05
2	0	0	1	0	648.909	-1.25543	-1.25518	-0.0541491	3	-0.0463545	39	220.8	6.79671e-05
2	0	0	0	0	650.309	-1.24843	-1.24818	-0.0507432	3	-0.0464277	39	222.2	6.33366e-05
2	0	0	1	0	651.709	-1.24143	-1.24118	-0.0473681	3	-0.0464961	39	223.6	5.87922e-05
2	0	0	1	0	653.109	-1.23443	-1.23419	-0.044074	3	-0.0465599	39	225	5.43958e-05
2	0	0	0	0	654.51	-1.22743	-1.22718	-0.0408968	3	-0.0466193	39	226.401	5.01876e-05
2	0	0	0	0	655.91	-1.22043	-1.22018	-0.0377869	3	-0.0466742	39	227.801	4.61067e-05
2	0	0	1	0	657.31	-1.21343	-1.21318	-0.034802	3	-0.0467248	39	229.201	4.2221e-05
2	0	0	0	0	658.71	-1.20643	-1.20619	-0.0318932	3	-0.0467713	39	230.601	3.84694e-05
2	0	0	0	0	660.11	-1.19943	-1.19917	-0.0291321	3	-0.0468139	39	232.001	3.49342e-05
2	0	0	1	0	661.51	-1.19243	-1.19218	-0.0265216	3	-0.0468527	39	233.401	3.16186e-05
2	0	0	1	0	662.91	-1.18543	-1.18519	-0.0241102	3	-0.046888	39	234.801	2.85752e-05
2	0	0	0	0	664.31	-1.17843	-1.17818	-0.0218554	3	-0.0469199	39	236.201	2.57496e-05
2	0	0	1	0	665.711	-1.17142	-1.17118	-0.0198543	3	-0.046949	39	237.602	2.32529e-05
2	0	0	1	0	667.111	-1.16442	-1.16417	-0.0179504	3	-0.0469753	39	239.002	2.08973e-05
2	0	0	0	0	668.511	-1.15742	-1.15719	-0.0163855	3	-0.0469992	39	240.402	1.89611e-05
2	0	0	1	0	669.911	-1.15042	-1.15018	-0.0149085	3	-0.0470209	39	241.802	1.71474e-05
2	0	0	1	0	671.311	-1.14342	-1.14319	-0.0135094	3	-0.0470407	39	243.202	1.54438e-05
2	0	0	0	0	672.711	-1.13642	-1.13617	-0.0123611	3	-0.0470587	39	244.602	1.40443e-05
2	0	0	1	0	674.111	-1.12942	-1.12917	-0.0112059	3	-0.047075	39	246.002	1.26533e-05
2	0	0	1	0	675.511	-1.12242	-1.12218	-0.0101422	3	-0.0470898	39	247.402	1.13814e-05
2	0	0	0	0	676.912	-1.11542	-1.11519	-0.00913207	3	-0.0471031	39	248.803	1.0184e-05
2	0	0	0	0	678.312	-1.10842	-1.10819	-0.00825788	3	-0.0471152	39	250.203	9.15133e-06
2	0	0	1	0	679.712	-1.10142	-1.10119	-0.00743779	3	-0.047126	39	251.603	8.19042e-06
2	0	0	1	0	681.112	-1.09442	-1.0942	-0.00668402	3	-0.0471357	39	253.003	7.31367e-06
2	0	0	0	0	682.512	-1.08742	-1.08721	-0.00601025	3	-0.0471444	39	254.403	6.5344e-06
2	0	0	1	0	683.912	-1.08042	-1.08018	-0.00540709	3	-0.0471522	39	255.803	5.84062e-06
2	0	0	1	0	685.312	-1.07342	-1.07318	-0.00485576	3	-0.0471592	39	257.203	5.21112e-06
2	0	0	0	0	686.712	-1.06642	-1.06618	-0.00437511	3	-0.0471655	39	258.603	4.66464e-06
2	0	0	1	0	688.113	-1.05941	-1.05916	-0.00395467	3	-0.0471711	39	260.004	4.18864e-06
2	0	0	1	0	689.513	-1.05241	-1.05218	-0.00348227	3	-0.0471761	39	261.404	3.66399e-06
2	0	0	0	0	690.913	-1.04541	-1.04518	-0.00298852	3	-0.0471805	39	262.804	3.12354e-06
2	0	0	0	0	692.313	-1.03841	-1.03817	-0.00242698	3	-0.0471841	39	264.204	2.51961e-06
2	0	0	1	0	693.713	-1.03141	-1.0312	-0.0018255	3	-0.0471869	39	265.604	1.88245e-06
2	0	0	0	0	695.113	-1.02441	-1.02419	-0.00119733	3	-0.0471889	39	267.004	1.2263e-06
2	0	0	0	0	696.513	-1.01741	-1.01717	-0.000536022	3	-0.0471899	39	268.404	5.45227e-07
2	0	0	1	0	697.913	-1.01041	-1.01017	2.96662e-05	3	-0.0471901	39	0.2	-2.99678e-08
2	1	0	1	0	699.314	-1.00341	-1.00317	0.000508719	3	-0.0471895	39	1.6002	-5.10331e-07
2	1	0	0	0	700.714	-0.996409	-0.996179	0.00101496	3	-0.0471883	39	3.0002	-1.01108e-06
2	1	0	1	0	702.114	-0.989408	-0.989196	0.00154349	3	-0.0471863	39	4.4004	-1.52681e-06
2	1	0	1	0	703.514	-0.982408	-0.982164	0.00219299	3	-0.0471835	39	5.8004	-2.15387e-06
2	1	0	0	0	704.914	-0.975407	-0.975182	0.0030732	3	-0.0471797	39	7.2006	-2.99693e-06
2	1	0	1	0	706.314	-0.968406	-0.968177	0.00421376	3	-0.0471745	39	8.6008	-4.07966e-06
2	1	0	1	0	707.714	-0.961406	-0.961159	0.00566828	3	-0.0471674	39	10.0008	-5.44812e-06
2	1	0	0	0	709.114	-0.954405	-0.954186	0.00727875	3	-0.0471582	39	11.401	-6.94528e-06
2	1	0	1	0	710.514	-0.947404	-0.947156	0.00874277	3	-0.0471467	39	12.8011	-8.28076e-06
2	1	0	1	0	711.915	-0.940404	-0.940173	0.00951008	3	-0.0471337	39	14.2012	-8.94112e-06
2	1	0	0	0	713.315	-0.933403	-0.933142	0.0091243	3	-0.0471204	39	15.6014	-8.51426e-06
2	1	0	0	0	714.715	-0.926403	-0.926167	0.00765132	3	-0.0471084	39	17.0014	-7.08641e-06
2	1	0	1	0	716.115	-0.919402	-0.919178	0.00556572	3	-0.047099	39	18.4016	-5.11589e-06
2	1	0	0	0	717.515	-0.912401	-0.912182	0.00331399	3	-0.0470925	39	19.8018	-3.02296e-06
2	1	0	0	0	718.915	-0.905401	-0.905165	0.00136159	3	-0.0470892	39	21.2018	-1.23246e-06
2	0	0	1	0	720.315	-0.8984	-0.898186	0.000183029	3	-0.0470881	39	22.602	-1.64394e-07
2	1	0	1	0	721.715	-0.8914	-0.891161	-0.000286991	3	-0.0470881	39	0.6	2.55756e-07
2	0	0	0	0	723.116	-0.884399	-0.884171	-0.000478053	3	-0.0470885	39	2.0002	4.22681e-07
2	0	0	1	0	724.516	-0.877398	-0.877175	-0.000517732	3	-0.0470891	39	3.4004	4.54142e-07
2	0	0	1	0	725.916	-0.870398	-0.870145	-0.000512133	3	-0.0470897	39	4.8004	4.4563e-07
2	0	0	0	0	727.316	-0.863397	-0.863171	-0.000482538	3	-0.0470902	39	6.2006	4.16512e-07
2	0	0	1	0	728.716	-0.856396	-0.856177	-0.00046124	3	-0.0470908	39	7.6008	3.94903e-07
2	0	0	1	0	730.116	-0.849396	-0.849156	-0.000362673	3	-0.0470913	39	9.0008	3.07966e-07
2	0	0	0	0	731.516	-0.842395	-0.842169	-0.000402262	3	-0.0470917	39	10.401	3.38773e-07
2	1	0	0	0	732.916	-0.835395	-0.835153	-0.000351752	3	-0.0470921	39	11.801	2.93766e-07
2	0	0	1	0	734.317	-0.828394	-0.828166	-0.000331276	3	-0.0470924	39	13.2012	2.74352e-07
2	0	0	0	0	735.717	-0.821393	-0.821159	-0.000291029	3	-0.0470928	39	14.6014	2.38981e-07
2	0	0	0	0	737.117	-0.814393	-0.814152	-0.000232071	3	-0.047093	39	16.0014	1.88941e-07
2	0	0	1	0	738.517	-0.807392	-0.807131	-0.000207456	3	-0.0470931	39	17.4016	1.67444e-07
2	0	0	1	0	739.917	-0.800392	-0.800173	-0.000182441	3	-0.0470933	39	18.8017	1.45984e-07
2	0	0	0	0	741.317	-0.793391	-0.793144	-0.000150798	3	-0.0470933	39	20.2018	1.19605e-07
2	0	0	1	0	742.717	-0.78639	-0.78614	-0.000102639	3	-0.0470934	39	21.602	8.06884e-08
2	0	0	1	0	744.117	-0.77939	-0.77914	-3.32898e-05	3	-0.0470933	39	0.8	2.59374e-08
2	1	0	0	0	745.518	-0.772389	-0.772133	6.92904e-06	3	-0.0470932	39	2.2002	-5.35014e-09
2	1	0	1	0	746.918	-0.765389	-0.765153	6.91362e-05	3	-0.0470931	39	3.6004	-5.28998e-08
2	1	0	1	0	748.318	-0.758388	-0.758168	0.000134163	3	-0.0470928	39	5.0004	-1.01718e-07
2	0	0	0	0	749.718	-0.751387	-0.751136	0.000189567	3	-0.0470924	39	6.4006	-1.4239e-07
2	1	0	0	0	751.118	-0.744387	-0.744148	0.000272224	3	-0.047092	39	7.8006	-2.02575e-07
2	0	0	1	0	752.518	-0.737386	-0.737161	0.000322553	3	-0.0470915	39	9.2008	-2.37773e-07
2	1	0	0	0	753.918	-0.730385	-0.730142	0.000428707	3	-0.0470908	39	10.601	-3.13017e-07
2	1	0	0	0	755.318	-0.723385	-0.723153	0.000547732	3	-0.04709	39	12.001	-3.96094e-07
2	1	0	1	0	756.719	-0.716384	-0.716138	0.000645689	3	-0.047089	39	13.4012	-4.62403e-07
2	1	0	1	0	758.119	-0.709383	-0.709135	0.000716943	3	-0.0470879	39	14.8014	-5.0841e-07
2	1	0	0	0	759.519	-0.702383	-0.702149	0.000799491	3	-0.0470867	39	16.2014	-5.61362e-07
2	1	0	1	0	760.919	-0.695382	-0.695169	0.000873792	3	-0.0470854	39	17.6016	-6.07433e-07
2	1	0	1	0	762.319	-0.688382	-0.688133	0.000835681	3	-0.0470841	39	19.0016	-5.7506e-07
2	1	0	0	0	763.719	-0.681381	-0.681168	0.000788827	3	-0.0470828	39	20.4018	-5.37324e-07
2	1	0	1	0	765.119	-0.67438	-0.674144	0.00080706	3	-0.0470816	39	21.802	-5.44074e-07
2	1	0	1	0	766.519	-0.66738	-0.667142	0.000787487	3	-0.0470804	39	23.202	-5.25365e-07
2	1	0	0	0	767.92	-0.660379	-0.660142	0.000743719	3	-0.0470792	39	24.6022	-4.9096e-07
2	1	0	1	0	769.32	-0.653379	-0.653123	0.000733505	3	-0.0470781	39	26.0022	-4.79068e-07
2	1	0	1	0	770.72	-0.646378	-0.64616	0.000715604	3	-0.0470769	39	27.4024	-4.62395e-07
2	1	0	0	0	772.12	-0.639377	-0.639143	0.000761018	3	-0.0470758	39	28.8026	-4.86399e-07
2	0	0	0	0	773.52	-0.632377	-0.632151	0.000689523	3	-0.0470747	39	30.2026	-4.35883e-07
2	0	0	1	0	774.92	-0.625376	-0.625118	0.000690182	3	-0.0470736	39	31.6028	-4.31445e-07
2	1	0	0	0	776.32	-0.618375	-0.618119	0.00069313	3	-0.0470725	39	33.003	-4.28437e-07
2	1	0	0	0	777.72	-0.611375	-0.611119	0.000651422	3	-0.0470714	39	34.403	-3.98096e-07
2	1	0	1	0	779.121	-0.604374	-0.604117	0.000707878	3	-0.0470703	39	35.8032	-4.27642e-07
2	0	0	1	0	780.521	-0.597374	-0.597121	0.000596117	3	-0.0470693	39	37.2032	-3.55954e-07
2	0	0	0	0	781.921	-0.590373	-0.590126	0.000613986	3	-0.0470683	39	38.6034	-3.62329e-07
2	1	0	1	0	783.321	-0.583372	-0.583138	0.000579057	3	-0.0470674	39	40.0036	-3.3767e-07
2	1	0	0	0	783.648	-0.581722	-0.58146	0.000506824	3	-0.0470672	39	40.3306	-2.94698e-07