File: Fig 3/Fig 3_RRDE-np-Fe3O4_5mvs_ring_1.mpt
mode	ox/red	error	control changes	Ns changes	counter inc.	Ns	time/s	control/V	Ewe/V	<I>/mA	dQ/C	(Q-Qo)/C	I Range	Q charge/discharge/mA.h	half cycle	Energy charge/W.h	Energy discharge/W.h	Capacitance charge/µF	Capacitance discharge/µF	step time/s	Q discharge/mA.h	Q charge/mA.h	Capacity/mA.h	Efficiency/%	cycle number	P/W
2	0	1	1	0	0	0	0.1	-0.300043	-0.299946	-0.106232	-1.06232e-05	-1.06232e-05	52	-2.95089e-06	0	0.000000000000000E+000	8.85108e-10	0.000000000000000E+000	0.000000000000000E+000	0.1	2.95089e-06	0.000000000000000E+000	2.95089e-06	0.0000000E+000	0.000000000000000E+000	3.18639e-05
2	0	0	1	0	0	0	3.8	-0.300043	-0.299911	-0.00268918	-3.16352e-05	-3.16352e-05	52	-8.78755e-06	0	0.000000000000000E+000	2.63588e-09	0.000000000000000E+000	920642	3.8	8.78755e-06	0.000000000000000E+000	8.78755e-06	0.0000000E+000	0.000000000000000E+000	8.06516e-07
2	0	0	1	0	0	0	7.5	-0.300043	-0.299976	-0.00144807	-3.87997e-05	-3.87997e-05	52	-1.07777e-05	0	0.000000000000000E+000	3.23284e-09	0.000000000000000E+000	1.26891e+06	7.5	1.07777e-05	0.000000000000000E+000	1.07777e-05	0.0000000E+000	0.000000000000000E+000	4.34387e-07
2	0	0	1	0	0	0	11.2	-0.300043	-0.299946	-0.00108098	-4.33543e-05	-4.33543e-05	52	-1.20429e-05	0	0.000000000000000E+000	3.61233e-09	0.000000000000000E+000	0.000000000000000E+000	11.2	1.20429e-05	0.000000000000000E+000	1.20429e-05	0.0000000E+000	0.000000000000000E+000	3.24236e-07
2	0	0	1	0	0	0	14.9	-0.300043	-0.299896	-0.000914607	-4.70023e-05	-4.70023e-05	52	-1.30562e-05	0	0.000000000000000E+000	3.91628e-09	0.000000000000000E+000	946660	14.9	1.30562e-05	0.000000000000000E+000	1.30562e-05	0.0000000E+000	0.000000000000000E+000	2.74287e-07
2	0	0	1	0	0	0	18.6	-0.300043	-0.299976	-0.000818505	-5.01793e-05	-5.01793e-05	52	-1.39387e-05	0	0.000000000000000E+000	4.18099e-09	0.000000000000000E+000	1.64107e+06	18.6	1.39387e-05	0.000000000000000E+000	1.39387e-05	0.0000000E+000	0.000000000000000E+000	2.45532e-07
2	0	0	1	0	0	0	22.3	-0.300043	-0.299992	-0.000759939	-5.30933e-05	-5.30933e-05	52	-1.47481e-05	0	0.000000000000000E+000	4.42378e-09	0.000000000000000E+000	1.15758e+06	22.3	1.47481e-05	0.000000000000000E+000	1.47481e-05	0.0000000E+000	0.000000000000000E+000	2.27975e-07
2	0	0	1	0	0	0	26	-0.300043	-0.299923	-0.000717331	-5.58217e-05	-5.58217e-05	52	-1.5506e-05	0	0.000000000000000E+000	4.65111e-09	0.000000000000000E+000	2.43572e+06	26	1.5506e-05	0.000000000000000E+000	1.5506e-05	0.0000000E+000	0.000000000000000E+000	2.15144e-07
2	0	0	1	0	0	0	29.7	-0.300043	-0.299957	-0.00068551	-5.8416e-05	-5.8416e-05	52	-1.62267e-05	0	0.000000000000000E+000	4.86726e-09	0.000000000000000E+000	5.09121e+06	29.7	1.62267e-05	0.000000000000000E+000	1.62267e-05	0.0000000E+000	0.000000000000000E+000	2.05623e-07
2	0	0	1	0	0	0	33.4	-0.300043	-0.299911	-0.000650864	-6.08895e-05	-6.08895e-05	52	-1.69137e-05	0	0.000000000000000E+000	5.07335e-09	0.000000000000000E+000	1.772e+06	33.4	1.69137e-05	0.000000000000000E+000	1.69137e-05	0.0000000E+000	0.000000000000000E+000	1.95201e-07
2	0	0	1	0	0	0	37.1	-0.300043	-0.299965	-0.000625741	-6.32513e-05	-6.32513e-05	52	-1.75698e-05	0	0.000000000000000E+000	5.27013e-09	0.000000000000000E+000	3.31101e+06	37.1	1.75698e-05	0.000000000000000E+000	1.75698e-05	0.0000000E+000	0.000000000000000E+000	1.877e-07
2	0	0	1	0	0	0	40.8	-0.300043	-0.2999	-0.000849018	-6.57203e-05	-6.57203e-05	52	-1.82556e-05	0	0.000000000000000E+000	5.47584e-09	0.000000000000000E+000	1.43381e+06	40.8	1.82556e-05	0.000000000000000E+000	1.82556e-05	0.0000000E+000	0.000000000000000E+000	2.5462e-07
2	0	0	1	0	0	0	44.5	-0.300043	-0.299923	-0.000880934	-6.89828e-05	-6.89828e-05	52	-1.91619e-05	0	0.000000000000000E+000	5.74766e-09	0.000000000000000E+000	3.00999e+06	44.5	1.91619e-05	0.000000000000000E+000	1.91619e-05	0.0000000E+000	0.000000000000000E+000	2.64212e-07
2	0	0	1	0	0	0	48.2	-0.300043	-0.299949	-0.000873166	-7.22394e-05	-7.22394e-05	52	-2.00665e-05	0	0.000000000000000E+000	6.01898e-09	0.000000000000000E+000	1.89371e+07	48.2	2.00665e-05	0.000000000000000E+000	2.00665e-05	0.0000000E+000	0.000000000000000E+000	2.61906e-07
2	0	0	1	0	0	0	51.9	-0.300043	-0.299961	-0.000869527	-7.54665e-05	-7.54665e-05	52	-2.09629e-05	0	0.000000000000000E+000	6.28783e-09	0.000000000000000E+000	4.93613e+06	51.9	2.09629e-05	0.000000000000000E+000	2.09629e-05	0.0000000E+000	0.000000000000000E+000	2.60824e-07
2	0	0	1	0	0	0	55.6	-0.300043	-0.299961	-0.000857878	-7.86615e-05	-7.86615e-05	52	-2.18504e-05	0	0.000000000000000E+000	6.55402e-09	0.000000000000000E+000	5.14511e+06	55.6	2.18504e-05	0.000000000000000E+000	2.18504e-05	0.0000000E+000	0.000000000000000E+000	2.5733e-07
2	0	0	1	0	0	0	59.3	-0.300043	-0.299953	-0.000847675	-8.18201e-05	-8.18201e-05	52	-2.27278e-05	0	0.000000000000000E+000	6.81718e-09	0.000000000000000E+000	1.06826e+07	59.3	2.27278e-05	0.000000000000000E+000	2.27278e-05	0.0000000E+000	0.000000000000000E+000	2.54263e-07
2	0	0	1	0	0	0	63	-0.300043	-0.299969	-0.000764244	-8.49419e-05	-8.49419e-05	52	-2.3595e-05	0	0.000000000000000E+000	7.07726e-09	0.000000000000000E+000	3.70153e+06	63	2.3595e-05	0.000000000000000E+000	2.3595e-05	0.0000000E+000	0.000000000000000E+000	2.29249e-07
2	0	0	1	0	0	0	66.7	-0.300043	-0.299881	-0.000593214	-8.72711e-05	-8.72711e-05	52	-2.4242e-05	0	0.000000000000000E+000	7.27132e-09	0.000000000000000E+000	1.34389e+06	66.7	2.4242e-05	0.000000000000000E+000	2.4242e-05	0.0000000E+000	0.000000000000000E+000	1.77894e-07
2	0	0	1	0	0	0	70.4	-0.300043	-0.299888	-0.000565368	-8.94096e-05	-8.94096e-05	52	-2.4836e-05	0	0.000000000000000E+000	7.44948e-09	0.000000000000000E+000	1.56011e+06	70.4	2.4836e-05	0.000000000000000E+000	2.4836e-05	0.0000000E+000	0.000000000000000E+000	1.69547e-07
2	0	0	1	0	0	0	74.1	-0.300043	-0.299881	-0.000546845	-9.14663e-05	-9.14663e-05	52	-2.54073e-05	0	0.000000000000000E+000	7.62083e-09	0.000000000000000E+000	1.40849e+06	74.1	2.54073e-05	0.000000000000000E+000	2.54073e-05	0.0000000E+000	0.000000000000000E+000	1.63988e-07
2	0	0	1	0	0	0	77.8	-0.300043	-0.299942	-0.000536665	-9.34704e-05	-9.34704e-05	52	-2.5964e-05	0	0.000000000000000E+000	7.78779e-09	0.000000000000000E+000	2.45027e+07	77.8	2.5964e-05	0.000000000000000E+000	2.5964e-05	0.0000000E+000	0.000000000000000E+000	1.60968e-07
2	0	0	1	0	0	0	81.5	-0.300043	-0.299946	-0.000739949	-9.5515e-05	-9.5515e-05	52	-2.65319e-05	0	0.000000000000000E+000	7.95813e-09	0.000000000000000E+000	0.000000000000000E+000	81.5	2.65319e-05	0.000000000000000E+000	2.65319e-05	0.0000000E+000	0.000000000000000E+000	2.21944e-07
2	0	0	1	0	0	0	85.2	-0.300043	-0.29995	-0.000784981	-9.84007e-05	-9.84007e-05	52	-2.73335e-05	0	0.000000000000000E+000	8.19854e-09	0.000000000000000E+000	2.55952e+07	85.2	2.73335e-05	0.000000000000000E+000	2.73335e-05	0.0000000E+000	0.000000000000000E+000	2.35455e-07
2	0	0	1	0	0	0	88.9	-0.300043	-0.299873	-0.000792858	-0.000101328	-0.000101328	52	-2.81466e-05	0	0.000000000000000E+000	8.44238e-09	0.000000000000000E+000	1.3963e+06	88.9	2.81466e-05	0.000000000000000E+000	2.81466e-05	0.0000000E+000	0.000000000000000E+000	2.37757e-07
2	0	0	1	0	0	0	92.6	-0.300043	-0.29995	-0.000785061	-0.000104254	-0.000104254	52	-2.89593e-05	0	0.000000000000000E+000	8.68614e-09	0.000000000000000E+000	2.71176e+07	92.6	2.89593e-05	0.000000000000000E+000	2.89593e-05	0.0000000E+000	0.000000000000000E+000	2.35479e-07
2	0	0	1	0	0	0	96.3	-0.300043	-0.299919	-0.000785439	-0.000107215	-0.000107215	52	-2.9782e-05	0	0.000000000000000E+000	8.93287e-09	0.000000000000000E+000	4.01064e+06	96.3	2.9782e-05	0.000000000000000E+000	2.9782e-05	0.0000000E+000	0.000000000000000E+000	2.35568e-07
2	0	0	1	0	0	0	100	-0.300043	-0.299938	-0.000776333	-0.000110095	-0.000110095	52	-3.05821e-05	0	0.000000000000000E+000	9.17282e-09	0.000000000000000E+000	1.44304e+07	100	3.05821e-05	0.000000000000000E+000	3.05821e-05	0.0000000E+000	0.000000000000000E+000	2.32852e-07
2	0	0	1	0	0	0	103.7	-0.300043	-0.299942	-0.000768392	-0.000112948	-0.000112948	52	-3.13744e-05	0	0.000000000000000E+000	9.41046e-09	0.000000000000000E+000	2.96086e+07	103.7	3.13744e-05	0.000000000000000E+000	3.13744e-05	0.0000000E+000	0.000000000000000E+000	2.30473e-07
2	0	0	1	0	0	0	107.4	-0.300043	-0.299938	-0.000749514	-0.00011575	-0.00011575	52	-3.21528e-05	0	0.000000000000000E+000	9.64394e-09	0.000000000000000E+000	1.51716e+07	107.4	3.21528e-05	0.000000000000000E+000	3.21528e-05	0.0000000E+000	0.000000000000000E+000	2.24808e-07
2	0	0	1	0	0	0	111.1	-0.300043	-0.300007	-0.000722763	-0.000118471	-0.000118471	52	-3.29087e-05	0	0.000000000000000E+000	9.87067e-09	0.000000000000000E+000	1.9382e+06	111.1	3.29087e-05	0.000000000000000E+000	3.29087e-05	0.0000000E+000	0.000000000000000E+000	2.16834e-07
2	0	0	1	0	0	0	114.8	-0.300043	-0.300011	-0.000705738	-0.000121113	-0.000121113	52	-3.36424e-05	0	0.000000000000000E+000	1.00907e-08	0.000000000000000E+000	1.86416e+06	114.8	3.36424e-05	0.000000000000000E+000	3.36424e-05	0.0000000E+000	0.000000000000000E+000	2.11729e-07
2	0	0	1	0	0	0	118.5	-0.300043	-0.2999	-0.000701732	-0.000123717	-0.000123717	52	-3.43659e-05	0	0.000000000000000E+000	1.03077e-08	0.000000000000000E+000	2.69913e+06	118.5	3.43659e-05	0.000000000000000E+000	3.43659e-05	0.0000000E+000	0.000000000000000E+000	2.10449e-07
2	0	0	1	0	0	0	122.2	-0.300043	-0.299946	-0.00067467	-0.000126275	-0.000126275	52	-3.50765e-05	0	0.000000000000000E+000	1.05208e-08	0.000000000000000E+000	0.000000000000000E+000	122.2	3.50765e-05	0.000000000000000E+000	3.50765e-05	0.0000000E+000	0.000000000000000E+000	2.02364e-07
2	0	0	1	0	0	0	125.9	-0.300043	-0.299923	-0.000642382	-0.000128722	-0.000128722	52	-3.57562e-05	0	0.000000000000000E+000	1.07247e-08	0.000000000000000E+000	5.62396e+06	125.9	3.57562e-05	0.000000000000000E+000	3.57562e-05	0.0000000E+000	0.000000000000000E+000	1.92665e-07
2	0	0	1	0	0	0	129.6	-0.300043	-0.299942	-0.000527926	-0.000130918	-0.000130918	52	-3.6366e-05	0	0.000000000000000E+000	1.09076e-08	0.000000000000000E+000	3.43193e+07	129.6	3.6366e-05	0.000000000000000E+000	3.6366e-05	0.0000000E+000	0.000000000000000E+000	1.58347e-07
2	0	0	1	0	0	0	133.3	-0.300043	-0.299992	-2.39152e-05	-0.000132083	-0.000132083	52	-3.66896e-05	0	0.000000000000000E+000	1.10047e-08	0.000000000000000E+000	2.88164e+06	133.3	3.66896e-05	0.000000000000000E+000	3.66896e-05	0.0000000E+000	0.000000000000000E+000	7.17435e-09
2	1	0	1	0	0	0	137	-0.300043	-0.299892	0.00103899	-0.000130292	-0.000130292	52	4.97466e-07	2	1.49206e-10	0.000000000000000E+000	66992.1	0.000000000000000E+000	3.5	0.000000000000000E+000	4.97466e-07	4.97466e-07	0.0000000E+000	1	-3.11586e-07
2	1	0	1	0	0	0	140.7	-0.300043	-0.299896	0.00223697	-0.000124016	-0.000124016	52	2.2408e-06	2	6.72082e-10	0.000000000000000E+000	351989	0.000000000000000E+000	7.2	0.000000000000000E+000	2.2408e-06	2.2408e-06	0.0000000E+000	1	-6.70858e-07
2	1	0	1	0	0	0	144.4	-0.300043	-0.299965	0.00229155	-0.000115201	-0.000115201	52	4.68953e-06	2	1.40651e-09	0.000000000000000E+000	368081	0.000000000000000E+000	10.9	0.000000000000000E+000	4.68953e-06	4.68953e-06	0.0000000E+000	1	-6.87383e-07
2	1	0	1	0	0	0	148.1	-0.300043	-0.299885	0.00129513	-0.000108549	-0.000108549	52	6.53723e-06	2	1.96067e-09	0.000000000000000E+000	684883	0.000000000000000E+000	14.6	0.000000000000000E+000	6.53723e-06	6.53723e-06	0.0000000E+000	1	-3.88389e-07
2	1	0	1	0	0	0	151.8	-0.300043	-0.299923	0.000548767	-0.000105345	-0.000105345	52	7.42712e-06	2	2.22757e-09	0.000000000000000E+000	7.00911e+06	0.000000000000000E+000	18.3	0.000000000000000E+000	7.42712e-06	7.42712e-06	0.0000000E+000	1	-1.64588e-07
2	1	0	1	0	0	0	155.5	-0.300043	-0.299957	0.000193247	-0.000104055	-0.000104055	52	7.78556e-06	2	2.33508e-09	0.000000000000000E+000	733591	0.000000000000000E+000	22	0.000000000000000E+000	7.78556e-06	7.78556e-06	0.0000000E+000	1	-5.79659e-08
2	1	0	1	0	0	0	159.2	-0.300043	-0.299915	3.14326e-05	-0.000103684	-0.000103684	52	7.88859e-06	2	2.36598e-09	0.000000000000000E+000	7.44461e+06	0.000000000000000E+000	25.7	0.000000000000000E+000	7.88859e-06	7.88859e-06	0.0000000E+000	1	-9.42711e-09
2	0	0	1	0	0	0	162.9	-0.300043	-0.299846	-3.11551e-05	-0.000103728	-0.000103728	52	-1.58324e-08	5	6.06259e-15	4.74818e-12	0.000000000000000E+000	1864.03	2	1.58324e-08	0.000000000000000E+000	1.58324e-08	0.0000000E+000	2	9.34174e-09
2	0	0	1	0	0	0	166.6	-0.300043	-0.299938	-5.27992e-05	-0.000103925	-0.000103925	52	-7.05994e-08	5	6.06259e-15	2.11746e-11	0.000000000000000E+000	4158.03	5.7	7.05994e-08	0.000000000000000E+000	7.05994e-08	0.0000000E+000	2	1.58365e-08
2	0	0	1	0	0	0	170.3	-0.300043	-0.299942	-4.59434e-05	-0.00010413	-0.00010413	52	-1.27521e-07	5	6.06259e-15	3.82472e-11	0.000000000000000E+000	7069.31	9.4	1.27521e-07	0.000000000000000E+000	1.27521e-07	0.0000000E+000	2	1.37803e-08
2	1	0	1	0	0	0	174	-0.300043	-0.299911	6.79095e-05	-0.000104176	-0.000104176	52	1.01502e-08	6	3.04417e-12	0.000000000000000E+000	531.239	0.000000000000000E+000	1	0.000000000000000E+000	1.01502e-08	1.01502e-08	0.0000000E+000	3	-2.03668e-08
2	0	0	1	0	0	0	177.7	-0.300043	-0.299957	-0.000575322	-0.000105247	-0.000105247	52	-3.09455e-07	7	6.63574e-12	9.28141e-11	1389.8	0.000000000000000E+000	2.8	3.09455e-07	0.000000000000000E+000	3.09455e-07	0.0000000E+000	3	1.72572e-07
2	0	0	1	0	0	0	181.4	-0.300043	-0.299976	-0.000643922	-0.000107533	-0.000107533	52	-9.44303e-07	7	6.63574e-12	2.83217e-10	1389.8	177953	6.5	9.44303e-07	0.000000000000000E+000	9.44303e-07	0.0000000E+000	3	1.93161e-07
2	0	0	1	0	0	0	185.1	-0.300043	-0.299923	-0.000668579	-0.000109954	-0.000109954	52	-1.61684e-06	7	6.63574e-12	4.84918e-10	1389.8	169244	10.2	1.61684e-06	0.000000000000000E+000	1.61684e-06	0.0000000E+000	3	2.00522e-07
2	0	0	1	0	0	0	188.8	-0.300043	-0.299923	-0.000666455	-0.00011241	-0.00011241	52	-2.29913e-06	7	6.63574e-12	6.89554e-10	1389.8	240663	13.9	2.29913e-06	0.000000000000000E+000	2.29913e-06	0.0000000E+000	3	1.99885e-07
2	0	0	1	0	0	0	192.5	-0.300043	-0.299972	-0.000675399	-0.000114873	-0.000114873	52	-2.9834e-06	7	6.63574e-12	8.94786e-10	1389.8	703873	17.6	2.9834e-06	0.000000000000000E+000	2.9834e-06	0.0000000E+000	3	2.02601e-07
2	0	0	1	0	0	0	196.2	-0.300043	-0.29998	-0.000660484	-0.000117318	-0.000117318	52	-3.66258e-06	7	6.63574e-12	1.09848e-09	1389.8	575325	21.3	3.66258e-06	0.000000000000000E+000	3.66258e-06	0.0000000E+000	3	1.98132e-07
2	0	0	1	0	0	0	199.9	-0.300043	-0.299969	-0.000647848	-0.000119726	-0.000119726	52	-4.33125e-06	7	6.63574e-12	1.29904e-09	1389.8	1.35896e+06	25	4.33125e-06	0.000000000000000E+000	4.33125e-06	0.0000000E+000	3	1.94334e-07
2	0	0	1	0	0	0	203.6	-0.300043	-0.299988	-0.000616189	-0.00012205	-0.00012205	52	-4.97689e-06	7	6.63574e-12	1.49268e-09	1389.8	586525	28.7	4.97689e-06	0.000000000000000E+000	4.97689e-06	0.0000000E+000	3	1.84849e-07
2	0	0	1	0	0	0	207.3	-0.300043	-0.299927	-0.000582904	-0.000124262	-0.000124262	52	-5.5913e-06	7	6.63574e-12	1.67695e-09	1389.8	658291	32.4	5.5913e-06	0.000000000000000E+000	5.5913e-06	0.0000000E+000	3	1.74828e-07
2	0	0	1	0	0	0	211	-0.300043	-0.299927	-0.000611824	-0.000126463	-0.000126463	52	-6.20268e-06	7	6.63574e-12	1.86032e-09	1389.8	730272	36.1	6.20268e-06	0.000000000000000E+000	6.20268e-06	0.0000000E+000	3	1.83502e-07
2	0	0	1	0	0	0	214.7	-0.300043	-0.299946	-0.000652808	-0.000128846	-0.000128846	52	-6.86464e-06	7	6.63574e-12	2.05886e-09	1389.8	2.15382e+06	39.8	6.86464e-06	0.000000000000000E+000	6.86464e-06	0.0000000E+000	3	1.95807e-07
2	0	0	1	0	0	0	218.4	-0.300043	-0.299919	-0.000659447	-0.000131266	-0.000131266	52	-7.53698e-06	7	6.63574e-12	2.26049e-09	1389.8	710169	43.5	7.53698e-06	0.000000000000000E+000	7.53698e-06	0.0000000E+000	3	1.97781e-07
2	0	0	1	0	0	0	222.1	-0.300043	-0.299927	-0.000656651	-0.0001337	-0.0001337	52	-8.21316e-06	7	6.63574e-12	2.46329e-09	1389.8	967919	47.2	8.21316e-06	0.000000000000000E+000	8.21316e-06	0.0000000E+000	3	1.96947e-07
2	0	0	1	0	0	0	225.8	-0.300043	-0.299873	-0.000665026	-0.000136167	-0.000136167	52	-8.89843e-06	7	6.63574e-12	2.66882e-09	1389.8	381168	50.9	8.89843e-06	0.000000000000000E+000	8.89843e-06	0.0000000E+000	3	1.99423e-07
2	0	0	1	0	0	0	229.5	-0.300043	-0.2999	-0.00066976	-0.000138633	-0.000138633	52	-9.58319e-06	7	6.63574e-12	2.87419e-09	1389.8	601981	54.6	9.58319e-06	0.000000000000000E+000	9.58319e-06	0.0000000E+000	3	2.00861e-07
2	0	0	1	0	0	0	233.2	-0.300043	-0.299957	-0.00068303	-0.000141132	-0.000141132	52	-1.02776e-05	7	6.63574e-12	3.08247e-09	1389.8	0.000000000000000E+000	58.3	1.02776e-05	0.000000000000000E+000	1.02776e-05	0.0000000E+000	3	2.0488e-07
2	0	0	1	0	0	0	236.9	-0.300043	-0.299904	-0.000695321	-0.000143674	-0.000143674	52	-1.09835e-05	7	6.63574e-12	3.29419e-09	1389.8	739144	62	1.09835e-05	0.000000000000000E+000	1.09835e-05	0.0000000E+000	3	2.08529e-07
2	0	0	1	0	0	0	240.6	-0.300043	-0.29982	-0.000706231	-0.000146258	-0.000146258	52	-1.17014e-05	7	6.63574e-12	3.50951e-09	1389.8	306281	65.7	1.17014e-05	0.000000000000000E+000	1.17014e-05	0.0000000E+000	3	2.11742e-07
2	0	0	1	0	0	0	244.3	-0.300043	-0.299908	-0.000699714	-0.000148859	-0.000148859	52	-1.24237e-05	7	6.63574e-12	3.72614e-09	1389.8	900802	69.4	1.24237e-05	0.000000000000000E+000	1.24237e-05	0.0000000E+000	3	2.09849e-07
2	0	0	1	0	0	0	248	-0.300043	-0.299957	-0.000707983	-0.000151465	-0.000151465	52	-1.31476e-05	7	6.63574e-12	3.94327e-09	1389.8	0.000000000000000E+000	73.1	1.31476e-05	0.000000000000000E+000	1.31476e-05	0.0000000E+000	3	2.12365e-07
2	0	0	1	0	0	0	251.7	-0.300043	-0.299915	-0.000714059	-0.000154098	-0.000154098	52	-1.38791e-05	7	6.63574e-12	4.16265e-09	1389.8	1.18904e+06	76.8	1.38791e-05	0.000000000000000E+000	1.38791e-05	0.0000000E+000	3	2.14157e-07
2	0	0	1	0	0	0	255.4	-0.300043	-0.299885	-0.000720276	-0.000156749	-0.000156749	52	-1.46156e-05	7	6.63574e-12	4.38353e-09	1389.8	724758	80.5	1.46156e-05	0.000000000000000E+000	1.46156e-05	0.0000000E+000	3	2.16e-07
2	0	0	1	0	0	0	259.1	-0.300043	-0.299911	-0.000713389	-0.000159394	-0.000159394	52	-1.53503e-05	7	6.63574e-12	4.60388e-09	1389.8	1.20563e+06	84.2	1.53503e-05	0.000000000000000E+000	1.53503e-05	0.0000000E+000	3	2.13954e-07
2	0	0	1	0	0	0	262.8	-0.300043	-0.299911	-0.000690586	-0.000161992	-0.000161992	52	-1.60719e-05	7	6.63574e-12	4.8203e-09	1389.8	1.2623e+06	87.9	1.60719e-05	0.000000000000000E+000	1.60719e-05	0.0000000E+000	3	2.07115e-07
2	0	0	1	0	0	0	266.5	-0.300043	-0.299908	-0.00055125	-0.000164356	-0.000164356	52	-1.67285e-05	7	6.63574e-12	5.01725e-09	1389.8	1.21293e+06	91.6	1.67285e-05	0.000000000000000E+000	1.67285e-05	0.0000000E+000	3	1.65324e-07
2	1	0	1	0	0	0	270.2	-0.300043	-0.299969	0.00024018	-0.000165001	-0.000165001	52	3.27426e-08	8	9.82028e-12	0.000000000000000E+000	1623.63	0.000000000000000E+000	0.9	0.000000000000000E+000	3.27426e-08	3.27426e-08	0.0000000E+000	4	-7.20465e-08
2	1	0	1	0	0	0	273.9	-0.300043	-0.299896	0.00129808	-0.00016212	-0.00016212	52	8.33029e-07	8	2.49831e-10	0.000000000000000E+000	0.000000000000000E+000	0.000000000000000E+000	4.6	0.000000000000000E+000	8.33029e-07	8.33029e-07	0.0000000E+000	4	-3.89289e-07
2	1	0	1	0	0	0	277.6	-0.300043	-0.29993	0.00244448	-0.000155165	-0.000155165	52	2.76479e-06	8	8.29182e-10	0.000000000000000E+000	289407	0.000000000000000E+000	8.3	0.000000000000000E+000	2.76479e-06	2.76479e-06	0.0000000E+000	4	-7.33173e-07
2	1	0	1	0	0	0	281.3	-0.300043	-0.299934	0.00359304	-0.000143846	-0.000143846	52	5.90916e-06	8	1.7722e-09	0.000000000000000E+000	556788	0.000000000000000E+000	12	0.000000000000000E+000	5.90916e-06	5.90916e-06	0.0000000E+000	4	-1.07768e-06
2	1	0	1	0	0	0	285	-0.300043	-0.2999	0.00440366	-0.000128853	-0.000128853	52	1.00739e-05	8	3.02127e-09	0.000000000000000E+000	9.50693e+06	0.000000000000000E+000	15.7	0.000000000000000E+000	1.00739e-05	1.00739e-05	0.0000000E+000	4	-1.32066e-06
2	1	0	1	0	0	0	288.7	-0.300043	-0.299908	0.00479332	-0.000111648	-0.000111648	52	1.4853e-05	8	4.45456e-09	0.000000000000000E+000	4.66021e+06	0.000000000000000E+000	19.4	0.000000000000000E+000	1.4853e-05	1.4853e-05	0.0000000E+000	4	-1.43755e-06
2	1	0	1	0	0	0	292.4	-0.300043	-0.299892	0.0050697	-9.32992e-05	-9.32992e-05	52	1.99499e-05	8	5.9832e-09	0.000000000000000E+000	1.88271e+07	0.000000000000000E+000	23.1	0.000000000000000E+000	1.99499e-05	1.99499e-05	0.0000000E+000	4	-1.52036e-06
2	1	0	1	0	0	0	296.1	-0.300043	-0.299915	0.00486239	-7.47924e-05	-7.47924e-05	52	2.50906e-05	8	7.52501e-09	0.000000000000000E+000	4.72831e+06	0.000000000000000E+000	26.8	0.000000000000000E+000	2.50906e-05	2.50906e-05	0.0000000E+000	4	-1.4583e-06
2	1	0	1	0	0	0	299.8	-0.300043	-0.299854	0.00382151	-5.83062e-05	-5.83062e-05	52	2.96701e-05	8	8.89845e-09	0.000000000000000E+000	2.54187e+06	0.000000000000000E+000	30.5	0.000000000000000E+000	2.96701e-05	2.96701e-05	0.0000000E+000	4	-1.1459e-06
2	1	0	1	0	0	0	303.5	-0.300043	-0.299904	0.00127784	-4.86853e-05	-4.86853e-05	52	3.23426e-05	8	9.69999e-09	0.000000000000000E+000	1.52612e+07	0.000000000000000E+000	34.2	0.000000000000000E+000	3.23426e-05	3.23426e-05	0.0000000E+000	4	-3.83229e-07
2	0	0	1	0	0	0	307.2	-0.300043	-0.299869	-0.000362258	-4.78045e-05	-4.78045e-05	52	-8.95614e-08	9	9.80024e-09	2.68596e-11	1.02525e+07	14068.5	1.4	8.95614e-08	0.000000000000000E+000	8.95614e-08	0.0000000E+000	4	1.0863e-07
2	0	0	1	0	0	0	310.9	-0.300043	-0.299888	-0.000574641	-4.96732e-05	-4.96732e-05	52	-6.08653e-07	9	9.80024e-09	1.82546e-10	1.02525e+07	574397	5.1	6.08653e-07	0.000000000000000E+000	6.08653e-07	0.0000000E+000	4	1.72328e-07
2	0	0	1	0	0	0	314.6	-0.300043	-0.299907	-0.000608628	-5.18632e-05	-5.18632e-05	52	-1.217e-06	9	9.80024e-09	3.64993e-10	1.02525e+07	287126	8.8	1.217e-06	0.000000000000000E+000	1.217e-06	0.0000000E+000	4	1.82532e-07
2	0	0	1	0	0	0	318.3	-0.300043	-0.299877	-0.000625136	-5.41279e-05	-5.41279e-05	52	-1.84608e-06	9	9.80024e-09	5.53657e-10	1.02525e+07	434695	12.5	1.84608e-06	0.000000000000000E+000	1.84608e-06	0.0000000E+000	4	1.87464e-07
2	0	0	1	0	0	0	322	-0.300043	-0.299892	-0.000650731	-5.64722e-05	-5.64722e-05	52	-2.49726e-06	9	9.80024e-09	7.48955e-10	1.02525e+07	0.000000000000000E+000	16.2	2.49726e-06	0.000000000000000E+000	2.49726e-06	0.0000000E+000	4	1.95149e-07
2	0	0	1	0	0	0	325.7	-0.300043	-0.299904	-0.000666946	-5.89157e-05	-5.89157e-05	52	-3.176e-06	9	9.80024e-09	9.52524e-10	1.02525e+07	999085	19.9	3.176e-06	0.000000000000000E+000	3.176e-06	0.0000000E+000	4	2.0002e-07
2	0	0	1	0	0	0	329.4	-0.300043	-0.299946	-0.000687699	-6.14428e-05	-6.14428e-05	52	-3.878e-06	9	9.80024e-09	1.16306e-09	1.02525e+07	261119	23.6	3.878e-06	0.000000000000000E+000	3.878e-06	0.0000000E+000	4	2.06272e-07
2	0	0	1	0	0	0	333.1	-0.300043	-0.299892	-0.000699734	-6.40255e-05	-6.40255e-05	52	-4.5954e-06	9	9.80024e-09	1.37823e-09	1.02525e+07	0.000000000000000E+000	27.3	4.5954e-06	0.000000000000000E+000	4.5954e-06	0.0000000E+000	4	2.09845e-07
2	0	0	1	0	0	0	336.8	-0.300043	-0.29993	-0.00070924	-6.66396e-05	-6.66396e-05	52	-5.32154e-06	9	9.80024e-09	1.59602e-09	1.02525e+07	501420	31	5.32154e-06	0.000000000000000E+000	5.32154e-06	0.0000000E+000	4	2.12723e-07
2	0	0	1	0	0	0	340.5	-0.300043	-0.299938	-0.000710529	-6.92745e-05	-6.92745e-05	52	-6.05346e-06	9	9.80024e-09	1.81553e-09	1.02525e+07	475444	34.7	6.05346e-06	0.000000000000000E+000	6.05346e-06	0.0000000E+000	4	2.13115e-07
2	0	0	1	0	0	0	344.2	-0.300043	-0.299927	-0.00072241	-7.19283e-05	-7.19283e-05	52	-6.79062e-06	9	9.80024e-09	2.03662e-09	1.02525e+07	711430	38.4	6.79062e-06	0.000000000000000E+000	6.79062e-06	0.0000000E+000	4	2.1667e-07
2	0	0	1	0	0	0	347.9	-0.300043	-0.299934	-0.000721902	-7.45957e-05	-7.45957e-05	52	-7.53156e-06	9	9.80024e-09	2.25884e-09	1.02525e+07	645236	42.1	7.53156e-06	0.000000000000000E+000	7.53156e-06	0.0000000E+000	4	2.16523e-07
2	0	0	1	0	0	0	351.6	-0.300043	-0.299911	-0.000723713	-7.72732e-05	-7.72732e-05	52	-8.27533e-06	9	9.80024e-09	2.48191e-09	1.02525e+07	1.55948e+06	45.8	8.27533e-06	0.000000000000000E+000	8.27533e-06	0.0000000E+000	4	2.1705e-07
2	0	0	1	0	0	0	355.3	-0.300043	-0.299988	-0.000725477	-7.99593e-05	-7.99593e-05	52	-9.02146e-06	9	9.80024e-09	2.7057e-09	1.02525e+07	340124	49.5	9.02146e-06	0.000000000000000E+000	9.02146e-06	0.0000000E+000	4	2.17634e-07
2	0	0	1	0	0	0	359	-0.300043	-0.299919	-0.000727243	-8.26495e-05	-8.26495e-05	52	-9.76875e-06	9	9.80024e-09	2.92983e-09	1.02525e+07	1.31552e+06	53.2	9.76875e-06	0.000000000000000E+000	9.76875e-06	0.0000000E+000	4	2.18114e-07
2	0	0	1	0	0	0	362.7	-0.300043	-0.299923	-0.00072605	-8.53438e-05	-8.53438e-05	52	-1.05172e-05	9	9.80024e-09	3.1543e-09	1.02525e+07	1.23944e+06	56.9	1.05172e-05	0.000000000000000E+000	1.05172e-05	0.0000000E+000	4	2.17759e-07
2	0	0	1	0	0	0	366.4	-0.300043	-0.299995	-0.00072832	-8.80427e-05	-8.80427e-05	52	-1.12669e-05	9	9.80024e-09	3.37915e-09	1.02525e+07	393237	60.6	1.12669e-05	0.000000000000000E+000	1.12669e-05	0.0000000E+000	4	2.18492e-07
2	0	0	1	0	0	0	370.1	-0.300043	-0.299919	-0.000734269	-9.07462e-05	-9.07462e-05	52	-1.20178e-05	9	9.80024e-09	3.60438e-09	1.02525e+07	1.6184e+06	64.3	1.20178e-05	0.000000000000000E+000	1.20178e-05	0.0000000E+000	4	2.20221e-07
2	0	0	1	0	0	0	373.8	-0.300043	-0.299923	-0.00073187	-9.34526e-05	-9.34526e-05	52	-1.27696e-05	9	9.80024e-09	3.82985e-09	1.02525e+07	1.5049e+06	68	1.27696e-05	0.000000000000000E+000	1.27696e-05	0.0000000E+000	4	2.19505e-07
2	0	0	1	0	0	0	377.5	-0.300043	-0.299907	-0.000734001	-9.61597e-05	-9.61597e-05	52	-1.35216e-05	9	9.80024e-09	4.05538e-09	1.02525e+07	3.19014e+06	71.7	1.35216e-05	0.000000000000000E+000	1.35216e-05	0.0000000E+000	4	2.20133e-07
2	0	0	1	0	0	0	381.2	-0.300043	-0.299923	-0.00073338	-9.88669e-05	-9.88669e-05	52	-1.42736e-05	9	9.80024e-09	4.28092e-09	1.02525e+07	1.68214e+06	75.4	1.42736e-05	0.000000000000000E+000	1.42736e-05	0.0000000E+000	4	2.19957e-07
2	0	0	1	0	0	0	384.9	-0.300043	-0.29993	-0.000729489	-0.000101569	-0.000101569	52	-1.50242e-05	9	9.80024e-09	4.50604e-09	1.02525e+07	1.41565e+06	79.1	1.50242e-05	0.000000000000000E+000	1.50242e-05	0.0000000E+000	4	2.18796e-07
2	0	0	1	0	0	0	388.6	-0.300043	-0.299938	-0.00073016	-0.000104279	-0.000104279	52	-1.57769e-05	9	9.80024e-09	4.73177e-09	1.02525e+07	1.23913e+06	82.8	1.57769e-05	0.000000000000000E+000	1.57769e-05	0.0000000E+000	4	2.19003e-07
2	0	0	1	0	0	0	392.3	-0.300043	-0.2999	-0.000734279	-0.00010699	-0.00010699	52	-1.653e-05	9	9.80024e-09	4.95765e-09	1.02525e+07	7.79984e+06	86.5	1.653e-05	0.000000000000000E+000	1.653e-05	0.0000000E+000	4	2.2021e-07
2	0	0	1	0	0	0	396	-0.300043	-0.299904	-0.000728288	-0.000109699	-0.000109699	52	-1.72825e-05	9	9.80024e-09	5.18332e-09	1.02525e+07	5.43659e+06	90.2	1.72825e-05	0.000000000000000E+000	1.72825e-05	0.0000000E+000	4	2.18416e-07
2	0	0	1	0	0	0	399.7	-0.300043	-0.299946	-0.000738522	-0.000112409	-0.000112409	52	-1.80353e-05	9	9.80024e-09	5.4091e-09	1.02525e+07	1.21437e+06	93.9	1.80353e-05	0.000000000000000E+000	1.80353e-05	0.0000000E+000	4	2.21516e-07
2	0	0	1	0	0	0	403.4	-0.300043	-0.299892	-0.000734027	-0.000115123	-0.000115123	52	-1.87893e-05	9	9.80024e-09	5.63524e-09	1.02525e+07	0.000000000000000E+000	97.6	1.87893e-05	0.000000000000000E+000	1.87893e-05	0.0000000E+000	4	2.20129e-07
2	0	0	1	0	0	0	407.1	-0.300043	-0.29995	-0.000728761	-0.000117832	-0.000117832	52	-1.95416e-05	9	9.80024e-09	5.86086e-09	1.02525e+07	1.22753e+06	101.3	1.95416e-05	0.000000000000000E+000	1.95416e-05	0.0000000E+000	4	2.18591e-07
2	0	0	1	0	0	0	410.8	-0.300043	-0.299904	-0.000729187	-0.000120535	-0.000120535	52	-2.02925e-05	9	9.80024e-09	6.08606e-09	1.02525e+07	6.38345e+06	105	2.02925e-05	0.000000000000000E+000	2.02925e-05	0.0000000E+000	4	2.18686e-07
2	0	0	1	0	0	0	414.5	-0.300043	-0.299885	-0.000733209	-0.000123237	-0.000123237	52	-2.10429e-05	9	9.80024e-09	6.31113e-09	1.02525e+07	9.89067e+06	108.7	2.10429e-05	0.000000000000000E+000	2.10429e-05	0.0000000E+000	4	2.19878e-07
2	0	0	1	0	0	0	418.2	-0.300043	-0.299961	-0.000728065	-0.000125933	-0.000125933	52	-2.17919e-05	9	9.80024e-09	6.53574e-09	1.02525e+07	1.14103e+06	112.4	2.17919e-05	0.000000000000000E+000	2.17919e-05	0.0000000E+000	4	2.18391e-07
2	0	0	1	0	0	0	421.9	-0.300043	-0.299907	-0.000732679	-0.000128626	-0.000128626	52	-2.25401e-05	9	9.80024e-09	6.76015e-09	1.02525e+07	5.31788e+06	116.1	2.25401e-05	0.000000000000000E+000	2.25401e-05	0.0000000E+000	4	2.19736e-07
2	0	0	1	0	0	0	425.6	-0.300043	-0.299934	-0.000725356	-0.000131317	-0.000131317	52	-2.32875e-05	9	9.80024e-09	6.98431e-09	1.02525e+07	1.99648e+06	119.8	2.32875e-05	0.000000000000000E+000	2.32875e-05	0.0000000E+000	4	2.17559e-07
2	0	0	1	0	0	0	429.3	-0.300043	-0.299919	-0.000729783	-0.000134006	-0.000134006	52	-2.40343e-05	9	9.80024e-09	7.20828e-09	1.02525e+07	3.23662e+06	123.5	2.40343e-05	0.000000000000000E+000	2.40343e-05	0.0000000E+000	4	2.18876e-07
2	0	0	1	0	0	0	433	-0.300043	-0.29998	-0.000725098	-0.000136692	-0.000136692	52	-2.47805e-05	9	9.80024e-09	7.43207e-09	1.02525e+07	1.0154e+06	127.2	2.47805e-05	0.000000000000000E+000	2.47805e-05	0.0000000E+000	4	2.17515e-07
2	0	0	1	0	0	0	436.7	-0.300043	-0.299919	-0.000725293	-0.000139378	-0.000139378	52	-2.55265e-05	9	9.80024e-09	7.65581e-09	1.02525e+07	3.43757e+06	130.9	2.55265e-05	0.000000000000000E+000	2.55265e-05	0.0000000E+000	4	2.17529e-07
2	0	0	1	0	0	0	440.4	-0.300043	-0.299911	-0.000724231	-0.000142057	-0.000142057	52	-2.62707e-05	9	9.80024e-09	7.87899e-09	1.02525e+07	4.9507e+06	134.6	2.62707e-05	0.000000000000000E+000	2.62707e-05	0.0000000E+000	4	2.17205e-07
2	0	0	1	0	0	0	444.1	-0.300043	-0.299892	-0.000727283	-0.000144734	-0.000144734	52	-2.70145e-05	9	9.80024e-09	8.10204e-09	1.02525e+07	0.000000000000000E+000	138.3	2.70145e-05	0.000000000000000E+000	2.70145e-05	0.0000000E+000	4	2.18106e-07
2	0	0	1	0	0	0	447.8	-0.300043	-0.299938	-0.000718518	-0.000147405	-0.000147405	52	-2.77564e-05	9	9.80024e-09	8.32456e-09	1.02525e+07	2.18002e+06	142	2.77564e-05	0.000000000000000E+000	2.77564e-05	0.0000000E+000	4	2.15511e-07
2	0	0	1	0	0	0	451.5	-0.300043	-0.299965	-0.000719178	-0.000150074	-0.000150074	52	-2.84978e-05	9	9.80024e-09	8.54691e-09	1.02525e+07	1.41373e+06	145.7	2.84978e-05	0.000000000000000E+000	2.84978e-05	0.0000000E+000	4	2.15728e-07
2	0	0	1	0	0	0	455.2	-0.300043	-0.299896	-0.00072096	-0.000152741	-0.000152741	52	-2.92385e-05	9	9.80024e-09	8.76903e-09	1.02525e+07	2.75929e+07	149.4	2.92385e-05	0.000000000000000E+000	2.92385e-05	0.0000000E+000	4	2.16213e-07
2	0	0	1	0	0	0	458.9	-0.300043	-0.299907	-0.000717068	-0.000155402	-0.000155402	52	-2.99779e-05	9	9.80024e-09	8.99077e-09	1.02525e+07	7.07267e+06	153.1	2.99779e-05	0.000000000000000E+000	2.99779e-05	0.0000000E+000	4	2.15054e-07
2	0	0	1	0	0	0	462.6	-0.300043	-0.299877	-0.000721059	-0.000158057	-0.000158057	52	-3.07152e-05	9	9.80024e-09	9.21189e-09	1.02525e+07	7.2325e+06	156.8	3.07152e-05	0.000000000000000E+000	3.07152e-05	0.0000000E+000	4	2.16229e-07
2	0	0	1	0	0	0	466.3	-0.300043	-0.299934	-0.000717403	-0.000160713	-0.000160713	52	-3.14531e-05	9	9.80024e-09	9.43321e-09	1.02525e+07	2.69462e+06	160.5	3.14531e-05	0.000000000000000E+000	3.14531e-05	0.0000000E+000	4	2.15174e-07
2	0	0	1	0	0	0	470	-0.300043	-0.299862	-0.000710159	-0.000163365	-0.000163365	52	-3.21897e-05	9	9.80024e-09	9.6541e-09	1.02525e+07	3.78985e+06	164.2	3.21897e-05	0.000000000000000E+000	3.21897e-05	0.0000000E+000	4	2.12949e-07
2	0	0	1	0	0	0	473.7	-0.300043	-0.299927	-0.00071656	-0.000166017	-0.000166017	52	-3.29263e-05	9	9.80024e-09	9.87501e-09	1.02525e+07	3.44957e+06	167.9	3.29263e-05	0.000000000000000E+000	3.29263e-05	0.0000000E+000	4	2.14915e-07
2	0	0	1	0	0	0	477.4	-0.300043	-0.299919	-0.000715973	-0.000168662	-0.000168662	52	-3.36612e-05	9	9.80024e-09	1.00954e-08	1.02525e+07	4.53304e+06	171.6	3.36612e-05	0.000000000000000E+000	3.36612e-05	0.0000000E+000	4	2.14734e-07
2	0	0	1	0	0	0	481.1	-0.300043	-0.300007	-0.000707032	-0.000171304	-0.000171304	52	-3.43951e-05	9	9.80024e-09	1.03155e-08	1.02525e+07	1.08057e+06	175.3	3.43951e-05	0.000000000000000E+000	3.43951e-05	0.0000000E+000	4	2.12114e-07
2	0	0	1	0	0	0	484.8	-0.300043	-0.299923	-0.000711366	-0.000173941	-0.000173941	52	-3.51275e-05	9	9.80024e-09	1.05352e-08	1.02525e+07	4.13976e+06	179	3.51275e-05	0.000000000000000E+000	3.51275e-05	0.0000000E+000	4	2.13355e-07
2	0	0	1	0	0	0	488.5	-0.300043	-0.299835	-0.000708584	-0.000176577	-0.000176577	52	-3.58596e-05	9	9.80024e-09	1.07547e-08	1.02525e+07	2.25257e+06	182.7	3.58596e-05	0.000000000000000E+000	3.58596e-05	0.0000000E+000	4	2.12458e-07
2	0	0	1	0	0	0	492.2	-0.300043	-0.299911	-0.000709788	-0.000179208	-0.000179208	52	-3.65905e-05	9	9.80024e-09	1.0974e-08	1.02525e+07	6.89546e+06	186.4	3.65905e-05	0.000000000000000E+000	3.65905e-05	0.0000000E+000	4	2.12874e-07
2	0	0	1	0	0	0	495.9	-0.300043	-0.299881	-0.000708766	-0.000181833	-0.000181833	52	-3.73196e-05	9	9.80024e-09	1.11926e-08	1.02525e+07	1.17092e+07	190.1	3.73196e-05	0.000000000000000E+000	3.73196e-05	0.0000000E+000	4	2.12545e-07
2	0	0	1	0	0	0	499.6	-0.300043	-0.299923	-0.000710259	-0.000184453	-0.000184453	52	-3.80475e-05	9	9.80024e-09	1.14109e-08	1.02525e+07	4.48389e+06	193.8	3.80475e-05	0.000000000000000E+000	3.80475e-05	0.0000000E+000	4	2.13023e-07
2	0	0	1	0	0	0	503.3	-0.300043	-0.299904	-0.00070851	-0.000187068	-0.000187068	52	-3.87738e-05	9	9.80024e-09	1.16287e-08	1.02525e+07	1.21972e+07	197.5	3.87738e-05	0.000000000000000E+000	3.87738e-05	0.0000000E+000	4	2.12485e-07
2	0	0	1	0	0	0	507	-0.300043	-0.299946	-0.00070354	-0.000189681	-0.000189681	52	-3.94996e-05	9	9.80024e-09	1.18464e-08	1.02525e+07	2.65964e+06	201.2	3.94996e-05	0.000000000000000E+000	3.94996e-05	0.0000000E+000	4	2.11024e-07
2	0	0	1	0	0	0	510.7	-0.300043	-0.29993	-0.000702929	-0.000192286	-0.000192286	52	-4.02233e-05	9	9.80024e-09	1.20634e-08	1.02525e+07	3.79002e+06	204.9	4.02233e-05	0.000000000000000E+000	4.02233e-05	0.0000000E+000	4	2.1083e-07
2	0	0	1	0	0	0	514.4	-0.300043	-0.299858	-0.000695858	-0.000194874	-0.000194874	52	-4.09422e-05	9	9.80024e-09	1.2279e-08	1.02525e+07	4.28566e+06	208.6	4.09422e-05	0.000000000000000E+000	4.09422e-05	0.0000000E+000	4	2.08658e-07
2	0	0	1	0	0	0	518.1	-0.300043	-0.299862	-0.000700697	-0.000197451	-0.000197451	52	-4.16579e-05	9	9.80024e-09	1.24937e-08	1.02525e+07	4.90459e+06	212.3	4.16579e-05	0.000000000000000E+000	4.16579e-05	0.0000000E+000	4	2.10112e-07
2	0	0	1	0	0	0	521.8	-0.300043	-0.299885	-0.000693284	-0.000200024	-0.000200024	52	-4.23729e-05	9	9.80024e-09	1.27081e-08	1.02525e+07	1.99162e+07	216	4.23729e-05	0.000000000000000E+000	4.23729e-05	0.0000000E+000	4	2.07905e-07
2	0	0	1	0	0	0	525.5	-0.300043	-0.299915	-0.000695113	-0.000202593	-0.000202593	52	-4.30865e-05	9	9.80024e-09	1.29221e-08	1.02525e+07	6.76811e+06	219.7	4.30865e-05	0.000000000000000E+000	4.30865e-05	0.0000000E+000	4	2.08475e-07
2	0	0	1	0	0	0	529.2	-0.300043	-0.299919	-0.000691907	-0.000205156	-0.000205156	52	-4.37983e-05	9	9.80024e-09	1.31356e-08	1.02525e+07	5.89817e+06	223.4	4.37983e-05	0.000000000000000E+000	4.37983e-05	0.0000000E+000	4	2.07516e-07
2	0	0	1	0	0	0	532.9	-0.300043	-0.299927	-0.00069413	-0.000207712	-0.000207712	52	-4.45083e-05	9	9.80024e-09	1.33485e-08	1.02525e+07	4.65895e+06	227.1	4.45083e-05	0.000000000000000E+000	4.45083e-05	0.0000000E+000	4	2.08188e-07
2	0	0	1	0	0	0	536.6	-0.300043	-0.299999	-0.000685774	-0.00021026	-0.00021026	52	-4.52161e-05	9	9.80024e-09	1.35608e-08	1.02525e+07	1.52185e+06	230.8	4.52161e-05	0.000000000000000E+000	4.52161e-05	0.0000000E+000	4	2.05732e-07
2	0	0	1	0	0	0	540.3	-0.300043	-0.299934	-0.00068531	-0.000212799	-0.000212799	52	-4.59213e-05	9	9.80024e-09	1.37723e-08	1.02525e+07	3.93412e+06	234.5	4.59213e-05	0.000000000000000E+000	4.59213e-05	0.0000000E+000	4	2.05548e-07
2	0	0	1	0	0	0	544	-0.300043	-0.299888	-0.000684627	-0.000215327	-0.000215327	52	-4.66236e-05	9	9.80024e-09	1.39829e-08	1.02525e+07	4.39996e+07	238.2	4.66236e-05	0.000000000000000E+000	4.66236e-05	0.0000000E+000	4	2.05312e-07
2	0	0	1	0	0	0	547.7	-0.300043	-0.299995	-0.00067834	-0.00021784	-0.00021784	52	-4.73218e-05	9	9.80024e-09	1.41923e-08	1.02525e+07	1.65163e+06	241.9	4.73218e-05	0.000000000000000E+000	4.73218e-05	0.0000000E+000	4	2.03499e-07
2	0	0	1	0	0	0	551.4	-0.300043	-0.299927	-0.000668488	-0.000220336	-0.000220336	52	-4.8015e-05	9	9.80024e-09	1.44002e-08	1.02525e+07	5.03037e+06	245.6	4.8015e-05	0.000000000000000E+000	4.8015e-05	0.0000000E+000	4	2.00497e-07
2	0	0	1	0	0	0	555.1	-0.300043	-0.2999	-0.000672975	-0.000222818	-0.000222818	52	-4.87043e-05	9	9.80024e-09	1.4607e-08	1.02525e+07	2.29816e+07	249.3	4.87043e-05	0.000000000000000E+000	4.87043e-05	0.0000000E+000	4	2.01825e-07
2	0	0	1	0	0	0	558.8	-0.300043	-0.299915	-0.000669762	-0.000225288	-0.000225288	52	-4.93905e-05	9	9.80024e-09	1.48127e-08	1.02525e+07	7.75835e+06	253	4.93905e-05	0.000000000000000E+000	4.93905e-05	0.0000000E+000	4	2.00872e-07
2	0	0	1	0	0	0	562.5	-0.300043	-0.299927	-0.000662215	-0.000227745	-0.000227745	52	-5.0073e-05	9	9.80024e-09	1.50174e-08	1.02525e+07	5.24143e+06	256.7	5.0073e-05	0.000000000000000E+000	5.0073e-05	0.0000000E+000	4	1.98616e-07
2	0	0	1	0	0	0	566.2	-0.300043	-0.299869	-0.000660751	-0.000230186	-0.000230186	52	-5.07512e-05	9	9.80024e-09	1.52208e-08	1.02525e+07	7.97209e+06	260.4	5.07512e-05	0.000000000000000E+000	5.07512e-05	0.0000000E+000	4	1.98139e-07
2	0	0	1	0	0	0	569.9	-0.300043	-0.299908	-0.000662829	-0.000232615	-0.000232615	52	-5.14258e-05	9	9.80024e-09	1.54231e-08	1.02525e+07	1.21092e+07	264.1	5.14258e-05	0.000000000000000E+000	5.14258e-05	0.0000000E+000	4	1.98787e-07
2	0	0	1	0	0	0	573.6	-0.300043	-0.299904	-0.000650397	-0.000235025	-0.000235025	52	-5.20952e-05	9	9.80024e-09	1.56239e-08	1.02525e+07	1.63877e+07	267.8	5.20952e-05	0.000000000000000E+000	5.20952e-05	0.0000000E+000	4	1.95056e-07
2	0	0	1	0	0	0	577.3	-0.300043	-0.299908	-0.000642376	-0.000237418	-0.000237418	52	-5.27599e-05	9	9.80024e-09	1.58232e-08	1.02525e+07	1.24234e+07	271.5	5.27599e-05	0.000000000000000E+000	5.27599e-05	0.0000000E+000	4	1.92653e-07
2	0	0	1	0	0	0	581	-0.300043	-0.299885	-0.00063718	-0.000239789	-0.000239789	52	-5.34187e-05	9	9.80024e-09	1.60208e-08	1.02525e+07	2.5108e+07	275.2	5.34187e-05	0.000000000000000E+000	5.34187e-05	0.0000000E+000	4	1.9108e-07
2	0	0	1	0	0	0	584.7	-0.300043	-0.299881	-0.000627192	-0.000242136	-0.000242136	52	-5.40707e-05	9	9.80024e-09	1.62163e-08	1.02525e+07	1.6965e+07	278.9	5.40707e-05	0.000000000000000E+000	5.40707e-05	0.0000000E+000	4	1.88083e-07
2	0	0	1	0	0	0	588.4	-0.300043	-0.299907	-0.000622374	-0.000244457	-0.000244457	52	-5.47152e-05	9	9.80024e-09	1.64096e-08	1.02525e+07	1.29089e+07	282.6	5.47152e-05	0.000000000000000E+000	5.47152e-05	0.0000000E+000	4	1.86655e-07
2	0	0	1	0	0	0	592.1	-0.300043	-0.299873	-0.000612617	-0.000246755	-0.000246755	52	-5.53537e-05	9	9.80024e-09	1.66011e-08	1.02525e+07	1.04314e+07	286.3	5.53537e-05	0.000000000000000E+000	5.53537e-05	0.0000000E+000	4	1.83707e-07
2	0	0	1	0	0	0	595.8	-0.300043	-0.299946	-0.000612808	-0.000249027	-0.000249027	52	-5.59848e-05	9	9.80024e-09	1.67904e-08	1.02525e+07	3.76754e+06	290	5.59848e-05	0.000000000000000E+000	5.59848e-05	0.0000000E+000	4	1.83809e-07
2	0	0	1	0	0	0	599.5	-0.300043	-0.299827	-0.000639394	-0.000251344	-0.000251344	52	-5.66284e-05	9	9.80024e-09	1.69834e-08	1.02525e+07	3.13784e+06	293.7	5.66284e-05	0.000000000000000E+000	5.66284e-05	0.0000000E+000	4	1.91708e-07
2	0	0	1	0	0	0	603.2	-0.300043	-0.299961	-0.000651342	-0.000253729	-0.000253729	52	-5.72908e-05	9	9.80024e-09	1.71821e-08	1.02525e+07	2.99978e+06	297.4	5.72908e-05	0.000000000000000E+000	5.72908e-05	0.0000000E+000	4	1.95377e-07
2	0	0	1	0	0	0	606.9	-0.300043	-0.2999	-0.000658736	-0.000256152	-0.000256152	52	-5.79637e-05	9	9.80024e-09	1.73839e-08	1.02525e+07	2.73507e+07	301.1	5.79637e-05	0.000000000000000E+000	5.79637e-05	0.0000000E+000	4	1.97555e-07
2	0	0	1	0	0	0	610.6	-0.300043	-0.299911	-0.000662637	-0.000258591	-0.000258591	52	-5.86413e-05	9	9.80024e-09	1.75871e-08	1.02525e+07	1.10509e+07	304.8	5.86413e-05	0.000000000000000E+000	5.86413e-05	0.0000000E+000	4	1.98732e-07
2	0	0	1	0	0	0	614.3	-0.300043	-0.299896	-0.000660347	-0.000261031	-0.000261031	52	-5.93192e-05	9	9.80024e-09	1.77904e-08	1.02525e+07	5.59807e+07	308.5	5.93192e-05	0.000000000000000E+000	5.93192e-05	0.0000000E+000	4	1.98035e-07
2	0	0	1	0	0	0	618	-0.300043	-0.299869	-0.000659876	-0.000263474	-0.000263474	52	-5.99979e-05	9	9.80024e-09	1.7994e-08	1.02525e+07	9.42458e+06	312.2	5.99979e-05	0.000000000000000E+000	5.99979e-05	0.0000000E+000	4	1.97877e-07
2	0	0	1	0	0	0	621.7	-0.300043	-0.299896	-0.000657487	-0.000265902	-0.000265902	52	-6.06721e-05	9	9.80024e-09	1.81962e-08	1.02525e+07	5.72574e+07	315.9	6.06721e-05	0.000000000000000E+000	6.06721e-05	0.0000000E+000	4	1.97178e-07
2	0	0	1	0	0	0	625.4	-0.300043	-0.299961	-0.000645061	-0.000268308	-0.000268308	52	-6.13407e-05	9	9.80024e-09	1.83967e-08	1.02525e+07	3.21184e+06	319.6	6.13407e-05	0.000000000000000E+000	6.13407e-05	0.0000000E+000	4	1.93493e-07
2	0	0	1	0	0	0	629.1	-0.300043	-0.299896	-0.000634195	-0.000270681	-0.000270681	52	-6.19998e-05	9	9.80024e-09	1.85944e-08	1.02525e+07	5.85104e+07	323.3	6.19998e-05	0.000000000000000E+000	6.19998e-05	0.0000000E+000	4	1.90192e-07
2	0	0	1	0	0	0	632.8	-0.300043	-0.299869	-0.000634471	-0.000273031	-0.000273031	52	-6.26526e-05	9	9.80024e-09	1.87902e-08	1.02525e+07	9.8288e+06	327	6.26526e-05	0.000000000000000E+000	6.26526e-05	0.0000000E+000	4	1.90258e-07
2	0	0	1	0	0	0	636.5	-0.300043	-0.299858	-0.000636575	-0.000275381	-0.000275381	52	-6.33051e-05	9	9.80024e-09	1.89859e-08	1.02525e+07	6.62652e+06	330.7	6.33051e-05	0.000000000000000E+000	6.33051e-05	0.0000000E+000	4	1.90882e-07
2	0	0	1	0	0	0	640.2	-0.300043	-0.299915	-0.000638129	-0.00027774	-0.00027774	52	-6.39607e-05	9	9.80024e-09	1.91825e-08	1.02525e+07	1.00471e+07	334.4	6.39607e-05	0.000000000000000E+000	6.39607e-05	0.0000000E+000	4	1.91385e-07
2	0	0	1	0	0	0	643.9	-0.300043	-0.299888	-0.000644631	-0.000280121	-0.000280121	52	-6.46221e-05	9	9.80024e-09	1.93809e-08	1.02525e+07	6.0985e+07	338.1	6.46221e-05	0.000000000000000E+000	6.46221e-05	0.0000000E+000	4	1.93317e-07
2	0	0	1	0	0	0	647.6	-0.300043	-0.299888	-0.000649088	-0.000282517	-0.000282517	52	-6.52874e-05	9	9.80024e-09	1.95804e-08	1.02525e+07	6.1613e+07	341.8	6.52874e-05	0.000000000000000E+000	6.52874e-05	0.0000000E+000	4	1.94654e-07
2	0	0	1	0	0	0	651.3	-0.300043	-0.299854	-0.000657579	-0.000284931	-0.000284931	52	-6.59582e-05	9	9.80024e-09	1.97816e-08	1.02525e+07	6.21488e+06	345.5	6.59582e-05	0.000000000000000E+000	6.59582e-05	0.0000000E+000	4	1.97178e-07
2	0	0	1	0	0	0	655	-0.300043	-0.299972	-0.00066117	-0.00028736	-0.00028736	52	-6.66326e-05	9	9.80024e-09	1.99839e-08	1.02525e+07	2.98995e+06	349.2	6.66326e-05	0.000000000000000E+000	6.66326e-05	0.0000000E+000	4	1.98333e-07
2	0	0	1	0	0	0	658.7	-0.300043	-0.2999	-0.000660891	-0.000289803	-0.000289803	52	-6.73114e-05	9	9.80024e-09	2.01875e-08	1.02525e+07	3.17615e+07	352.9	6.73114e-05	0.000000000000000E+000	6.73114e-05	0.0000000E+000	4	1.98201e-07
2	0	0	1	0	0	0	662.4	-0.300043	-0.299957	-0.000664817	-0.000292257	-0.000292257	52	-6.7993e-05	9	9.80024e-09	2.03919e-08	1.02525e+07	3.76929e+06	356.6	6.7993e-05	0.000000000000000E+000	6.7993e-05	0.0000000E+000	4	1.99417e-07
2	0	0	1	0	0	0	666.1	-0.300043	-0.29995	-0.00066122	-0.000294713	-0.000294713	52	-6.86753e-05	9	9.80024e-09	2.05965e-08	1.02525e+07	4.31394e+06	360.3	6.86753e-05	0.000000000000000E+000	6.86753e-05	0.0000000E+000	4	1.98333e-07
2	0	0	1	0	0	0	669.8	-0.300043	-0.29993	-0.00066059	-0.000297161	-0.000297161	52	-6.93552e-05	9	9.80024e-09	2.08004e-08	1.02525e+07	6.53496e+06	364	6.93552e-05	0.000000000000000E+000	6.93552e-05	0.0000000E+000	4	1.98131e-07
2	0	0	1	0	0	0	673.5	-0.300043	-0.299927	-0.000647839	-0.000299581	-0.000299581	52	-7.00276e-05	9	9.80024e-09	2.10021e-08	1.02525e+07	7.33656e+06	367.7	7.00276e-05	0.000000000000000E+000	7.00276e-05	0.0000000E+000	4	1.94304e-07
2	0	0	1	0	0	0	677.2	-0.300043	-0.299919	-0.000629906	-0.00030195	-0.00030195	52	-7.06855e-05	9	9.80024e-09	2.11994e-08	1.02525e+07	9.51898e+06	371.4	7.06855e-05	0.000000000000000E+000	7.06855e-05	0.0000000E+000	4	1.88921e-07
2	0	0	1	0	0	0	680.9	-0.300043	-0.299957	-0.000614099	-0.000304251	-0.000304251	52	-7.13246e-05	9	9.80024e-09	2.13911e-08	1.02525e+07	3.95398e+06	375.1	7.13246e-05	0.000000000000000E+000	7.13246e-05	0.0000000E+000	4	1.84203e-07
2	0	0	1	0	0	0	684.6	-0.300043	-0.299927	-0.000598446	-0.000306485	-0.000306485	52	-7.19454e-05	9	9.80024e-09	2.15772e-08	1.02525e+07	7.53748e+06	378.8	7.19454e-05	0.000000000000000E+000	7.19454e-05	0.0000000E+000	4	1.7949e-07
2	0	0	1	0	0	0	688.3	-0.300043	-0.299896	-0.000578546	-0.000308663	-0.000308663	52	-7.25502e-05	9	9.80024e-09	2.17586e-08	1.02525e+07	6.84669e+07	382.5	7.25502e-05	0.000000000000000E+000	7.25502e-05	0.0000000E+000	4	1.73504e-07
2	0	0	1	0	0	0	692	-0.300043	-0.299869	-0.000556413	-0.000310766	-0.000310766	52	-7.31345e-05	9	9.80024e-09	2.19338e-08	1.02525e+07	1.14881e+07	386.2	7.31345e-05	0.000000000000000E+000	7.31345e-05	0.0000000E+000	4	1.66851e-07
2	0	0	1	0	0	0	695.7	-0.300043	-0.299873	-0.000517764	-0.000312742	-0.000312742	52	-7.36834e-05	9	9.80024e-09	2.20985e-08	1.02525e+07	1.38856e+07	389.9	7.36834e-05	0.000000000000000E+000	7.36834e-05	0.0000000E+000	4	1.55263e-07
2	0	0	1	0	0	0	699.4	-0.300043	-0.2999	-0.000474882	-0.000314559	-0.000314559	52	-7.41881e-05	9	9.80024e-09	2.22499e-08	1.02525e+07	3.50064e+07	393.6	7.41881e-05	0.000000000000000E+000	7.41881e-05	0.0000000E+000	4	1.42417e-07
2	0	0	1	0	0	0	703.1	-0.300043	-0.299873	-0.000452031	-0.000316276	-0.000316276	52	-7.46649e-05	9	9.80024e-09	2.23928e-08	1.02525e+07	1.40705e+07	397.3	7.46649e-05	0.000000000000000E+000	7.46649e-05	0.0000000E+000	4	1.35552e-07
2	0	0	1	0	0	0	706.8	-0.300043	-0.299911	-0.000392744	-0.000317852	-0.000317852	52	-7.51028e-05	9	9.80024e-09	2.25242e-08	1.02525e+07	1.41531e+07	401	7.51028e-05	0.000000000000000E+000	7.51028e-05	0.0000000E+000	4	1.17788e-07
2	0	0	1	0	0	0	710.5	-0.300043	-0.299862	-0.000311041	-0.000319137	-0.000319137	52	-7.54597e-05	9	9.80024e-09	2.26312e-08	1.02525e+07	8.88424e+06	404.7	7.54597e-05	0.000000000000000E+000	7.54597e-05	0.0000000E+000	4	9.32694e-08
2	0	0	1	0	0	0	714.2	-0.300043	-0.2999	-0.000418414	-0.000320422	-0.000320422	52	-7.58166e-05	9	9.80024e-09	2.27382e-08	1.02525e+07	3.57748e+07	408.4	7.58166e-05	0.000000000000000E+000	7.58166e-05	0.0000000E+000	4	1.25482e-07
2	0	0	1	0	0	0	717.9	-0.300043	-0.299888	-0.000594041	-0.000322336	-0.000322336	52	-7.63484e-05	9	9.80024e-09	2.28977e-08	1.02525e+07	7.20514e+07	412.1	7.63484e-05	0.000000000000000E+000	7.63484e-05	0.0000000E+000	4	1.78146e-07
2	0	0	1	0	0	0	721.6	-0.300043	-0.299946	-0.000639107	-0.000324641	-0.000324641	52	-7.69886e-05	9	9.80024e-09	2.30897e-08	1.02525e+07	5.18389e+06	415.8	7.69886e-05	0.000000000000000E+000	7.69886e-05	0.0000000E+000	4	1.91697e-07
2	0	0	1	0	0	0	725.3	-0.300043	-0.299915	-0.000654302	-0.000327024	-0.000327024	52	-7.76506e-05	9	9.80024e-09	2.32882e-08	1.02525e+07	1.21975e+07	419.5	7.76506e-05	0.000000000000000E+000	7.76506e-05	0.0000000E+000	4	1.96235e-07
2	0	0	1	0	0	0	729	-0.300043	-0.299961	-0.000660563	-0.000329449	-0.000329449	52	-7.83243e-05	9	9.80024e-09	2.34903e-08	1.02525e+07	4.10111e+06	423.2	7.83243e-05	0.000000000000000E+000	7.83243e-05	0.0000000E+000	4	1.98143e-07
2	0	0	1	0	0	0	732.7	-0.300043	-0.299923	-0.000661446	-0.000331896	-0.000331896	52	-7.9004e-05	9	9.80024e-09	2.36941e-08	1.02525e+07	9.3106e+06	426.9	7.9004e-05	0.000000000000000E+000	7.9004e-05	0.0000000E+000	4	1.98383e-07
2	0	0	1	0	0	0	736.4	-0.300043	-0.299953	-0.000670141	-0.000334362	-0.000334362	52	-7.9689e-05	9	9.80024e-09	2.38996e-08	1.02525e+07	4.69337e+06	430.6	7.9689e-05	0.000000000000000E+000	7.9689e-05	0.0000000E+000	4	2.01011e-07
2	0	0	1	0	0	0	740.1	-0.300043	-0.299877	-0.000670084	-0.000336843	-0.000336843	52	-8.0378e-05	9	9.80024e-09	2.41062e-08	1.02525e+07	1.89266e+07	434.3	8.0378e-05	0.000000000000000E+000	8.0378e-05	0.0000000E+000	4	2.00943e-07
2	0	0	1	0	0	0	743.8	-0.300043	-0.299938	-0.000673547	-0.000339331	-0.000339331	52	-8.10691e-05	9	9.80024e-09	2.43135e-08	1.02525e+07	6.36724e+06	438	8.10691e-05	0.000000000000000E+000	8.10691e-05	0.0000000E+000	4	2.02023e-07
2	0	0	1	0	0	0	747.5	-0.300043	-0.299904	-0.000676592	-0.000341825	-0.000341825	52	-8.17621e-05	9	9.80024e-09	2.45213e-08	1.02525e+07	2.57201e+07	441.7	8.17621e-05	0.000000000000000E+000	8.17621e-05	0.0000000E+000	4	2.02912e-07
2	0	0	1	0	0	0	751.2	-0.300043	-0.299908	-0.000674899	-0.000344327	-0.000344327	52	-8.24568e-05	9	9.80024e-09	2.47297e-08	1.02525e+07	1.94161e+07	445.4	8.24568e-05	0.000000000000000E+000	8.24568e-05	0.0000000E+000	4	2.02407e-07
2	0	0	1	0	0	0	754.9	-0.300043	-0.299923	-0.000675969	-0.000346823	-0.000346823	52	-8.31504e-05	9	9.80024e-09	2.49377e-08	1.02525e+07	9.79925e+06	449.1	8.31504e-05	0.000000000000000E+000	8.31504e-05	0.0000000E+000	4	2.02738e-07
2	0	0	1	0	0	0	758.6	-0.300043	-0.299946	-0.000677404	-0.000349325	-0.000349325	52	-8.38453e-05	9	9.80024e-09	2.51461e-08	1.02525e+07	5.64244e+06	452.8	8.38453e-05	0.000000000000000E+000	8.38453e-05	0.0000000E+000	4	2.03184e-07
2	0	0	1	0	0	0	762.3	-0.300043	-0.299946	-0.000673083	-0.000351828	-0.000351828	52	-8.45404e-05	9	9.80024e-09	2.53546e-08	1.02525e+07	5.69239e+06	456.5	8.45404e-05	0.000000000000000E+000	8.45404e-05	0.0000000E+000	4	2.01888e-07
2	0	0	1	0	0	0	766	-0.300043	-0.299915	-0.000675689	-0.000354324	-0.000354324	52	-8.52339e-05	9	9.80024e-09	2.55626e-08	1.02525e+07	1.33887e+07	460.2	8.52339e-05	0.000000000000000E+000	8.52339e-05	0.0000000E+000	4	2.02649e-07
2	0	0	1	0	0	0	769.7	-0.300043	-0.299831	-0.000678599	-0.000356829	-0.000356829	52	-8.59296e-05	9	9.80024e-09	2.57712e-08	1.02525e+07	5.05846e+06	463.9	8.59296e-05	0.000000000000000E+000	8.59296e-05	0.0000000E+000	4	2.03465e-07
2	0	0	1	0	0	0	773.4	-0.300043	-0.299942	-0.000678259	-0.000359339	-0.000359339	52	-8.6627e-05	9	9.80024e-09	2.59803e-08	1.02525e+07	6.28102e+06	467.6	8.6627e-05	0.000000000000000E+000	8.6627e-05	0.0000000E+000	4	2.03438e-07
2	0	0	1	0	0	0	777.1	-0.300043	-0.29985	-0.000675486	-0.000361851	-0.000361851	52	-8.73247e-05	9	9.80024e-09	2.61896e-08	1.02525e+07	7.48118e+06	471.3	8.73247e-05	0.000000000000000E+000	8.73247e-05	0.0000000E+000	4	2.02545e-07
2	0	0	1	0	0	0	780.8	-0.300043	-0.299911	-0.000678212	-0.000364369	-0.000364369	52	-8.80242e-05	9	9.80024e-09	2.63994e-08	1.02525e+07	1.65881e+07	475	8.80242e-05	0.000000000000000E+000	8.80242e-05	0.0000000E+000	4	2.03404e-07
2	0	0	1	0	0	0	782.718	-0.300043	-0.299907	-0.000675581	-0.000365676	-0.000365676	52	-8.83872e-05	9	9.80024e-09	2.65083e-08	1.02525e+07	2.08532e+07	476.918	8.83872e-05	0.000000000000000E+000	8.83872e-05	270.489	4	2.02612e-07