File: Fig 3/Fig 3_RRDE-np-Fe3O4_100mvs_ring.mpt
mode	ox/red	error	control changes	counter inc.	time/s	control/V	Ewe/V	<I>/mA	cycle number	(Q-Qo)/C	I Range	step time/s	P/W
2	1	0	0	0	0.000000000000000E+000	-0.299996	-0.300061	4.1043	1	0.0000000E+000	39	0.000000000000000E+000	-0.00123154
2	1	0	1	0	0.0955	-0.309544	-0.309898	0.0330874	1	1.39046e-05	39	0.09	-1.02537e-05
2	1	0	1	0	0.1955	-0.319542	-0.319921	0.0210253	1	1.64081e-05	39	0.19	-6.72643e-06
2	1	0	1	0	0.2955	-0.329541	-0.329934	0.0156336	1	1.81055e-05	39	0.29	-5.15806e-06
2	1	0	1	0	0.3955	-0.339539	-0.339919	0.0129907	1	1.94487e-05	39	0.39	-4.41577e-06
2	1	0	1	0	0.4955	-0.349537	-0.349877	0.0112728	1	2.05811e-05	39	0.49	-3.94409e-06
2	1	0	1	0	0.5955	-0.359535	-0.359887	0.00999119	1	2.15663e-05	39	0.59	-3.5957e-06
2	1	0	1	0	0.6955	-0.369534	-0.369886	0.009275	1	2.24471e-05	39	0.69	-3.43069e-06
2	1	0	1	0	0.7955	-0.379532	-0.379896	0.0082525	1	2.32436e-05	39	0.79	-3.13509e-06
2	1	0	1	0	0.8955	-0.38953	-0.389882	0.00764928	1	2.39711e-05	39	0.89	-2.98232e-06
2	1	0	1	0	0.9955	-0.399528	-0.399895	0.00720201	1	2.46404e-05	39	0.99	-2.88004e-06
2	1	0	1	0	1.0955	-0.409527	-0.409916	0.00675358	1	2.52665e-05	39	1.09	-2.7684e-06
2	1	0	1	0	1.1953	-0.419525	-0.419908	0.00632284	1	2.58479e-05	39	1.1898	-2.65501e-06
2	1	0	1	0	1.2953	-0.429523	-0.429903	0.00578519	1	2.63836e-05	39	1.2898	-2.48707e-06
2	1	0	1	0	1.3953	-0.439521	-0.439875	0.00551016	1	2.68851e-05	39	1.3898	-2.42378e-06
2	1	0	1	0	1.4953	-0.449519	-0.449914	0.0051549	1	2.73554e-05	39	1.4898	-2.31926e-06
2	1	0	1	0	1.5953	-0.459518	-0.4599	0.00495399	1	2.77864e-05	39	1.5898	-2.27834e-06
2	1	0	1	0	1.6953	-0.469516	-0.469879	0.00463147	1	2.81885e-05	39	1.6898	-2.17623e-06
2	1	0	1	0	1.7953	-0.479514	-0.479891	0.00431176	1	2.85722e-05	39	1.7898	-2.06918e-06
2	1	0	1	0	1.8953	-0.489512	-0.489856	0.00391285	1	2.89186e-05	39	1.8898	-1.91673e-06
2	1	0	1	0	1.9953	-0.499511	-0.49985	0.00364097	1	2.92287e-05	39	1.9898	-1.81994e-06
2	1	0	1	0	2.0953	-0.509509	-0.509882	0.0034006	1	2.95171e-05	39	2.0898	-1.7339e-06
2	1	0	1	0	2.1953	-0.519507	-0.519866	0.00302845	1	2.97716e-05	39	2.1898	-1.57439e-06
2	1	0	1	0	2.2951	-0.529505	-0.529871	0.00282121	1	2.99921e-05	39	2.2896	-1.49488e-06
2	1	0	1	0	2.3951	-0.539504	-0.539848	0.00269305	1	3.0199e-05	39	2.3896	-1.45384e-06
2	1	0	1	0	2.4951	-0.549502	-0.549869	0.0021972	1	3.03756e-05	39	2.4896	-1.20817e-06
2	1	0	1	0	2.5951	-0.5595	-0.559847	0.00183642	1	3.05192e-05	39	2.5896	-1.02812e-06
2	1	0	1	0	2.6951	-0.569498	-0.569854	0.00163433	1	3.06315e-05	39	2.6896	-9.31329e-07
2	1	0	1	0	2.7951	-0.579497	-0.579842	0.00141844	1	3.07141e-05	39	2.7896	-8.22472e-07
2	1	0	1	0	2.8951	-0.589495	-0.589854	0.00114626	1	3.07699e-05	39	2.8896	-6.76126e-07
2	1	0	1	0	2.9951	-0.599493	-0.599833	0.000696745	1	3.07969e-05	39	2.9896	-4.1793e-07
2	1	0	1	0	3.0951	-0.609491	-0.609845	0.000342494	1	3.07882e-05	39	0.04	-2.08868e-07
2	0	0	1	0	3.1951	-0.61949	-0.619845	0.000223108	1	3.07507e-05	39	0.14	-1.38292e-07
2	0	0	1	0	3.2951	-0.629488	-0.629842	-3.5761e-05	1	3.0688e-05	39	0.24	2.25238e-08
2	0	0	1	0	3.3951	-0.639486	-0.639843	-0.000480639	1	3.05928e-05	39	0.34	3.07534e-07
2	0	0	1	0	3.4949	-0.649484	-0.649819	-0.000653678	1	3.04691e-05	39	0.4398	4.24772e-07
2	0	0	1	0	3.5949	-0.659482	-0.659839	-0.00128004	1	3.02994e-05	39	0.5398	8.44623e-07
2	0	0	1	0	3.6949	-0.669481	-0.669832	-0.00171723	1	3.00952e-05	39	0.6398	1.15026e-06
2	0	0	1	0	3.7949	-0.679479	-0.679851	-0.00233165	1	2.9846e-05	39	0.7398	1.58517e-06
2	0	0	1	0	3.8949	-0.689477	-0.689848	-0.00261226	1	2.95489e-05	39	0.8398	1.80206e-06
2	0	0	1	0	3.9949	-0.699475	-0.699829	-0.00299832	1	2.92108e-05	39	0.9398	2.09831e-06
2	0	0	1	0	4.0949	-0.709474	-0.709826	-0.00358651	1	2.88153e-05	39	1.0398	2.5458e-06
2	0	0	1	0	4.1949	-0.719472	-0.719846	-0.00419654	1	2.83591e-05	39	1.1398	3.02086e-06
2	0	0	1	0	4.2949	-0.72947	-0.729839	-0.00506435	1	2.78366e-05	39	1.2398	3.69616e-06
2	0	0	1	0	4.3949	-0.739468	-0.73984	-0.00554684	1	2.72566e-05	39	1.3398	4.10377e-06
2	0	0	1	0	4.4949	-0.749467	-0.749822	-0.00641371	1	2.66105e-05	39	1.4398	4.80914e-06
2	0	0	1	0	4.5947	-0.759465	-0.759826	-0.00707615	1	2.58862e-05	39	1.5396	5.37664e-06
2	0	0	1	0	4.6947	-0.769463	-0.769827	-0.00797579	1	2.50822e-05	39	1.6396	6.13998e-06
2	0	0	1	0	4.7947	-0.779461	-0.77983	-0.00917394	1	2.41849e-05	39	1.7396	7.15412e-06
2	0	0	1	0	4.8947	-0.78946	-0.789825	-0.0100117	1	2.31916e-05	39	1.8396	7.90747e-06
2	0	0	1	0	4.9947	-0.799458	-0.799823	-0.0111736	1	2.20907e-05	39	1.9396	8.9369e-06
2	0	0	1	0	5.0947	-0.809456	-0.809805	-0.0124238	1	2.08639e-05	39	2.0396	1.00608e-05
2	0	0	1	0	5.1947	-0.819454	-0.819803	-0.0138865	1	1.95031e-05	39	2.1396	1.13842e-05
2	0	0	1	0	5.2947	-0.829453	-0.829775	-0.0154454	1	1.79885e-05	39	2.2396	1.28162e-05
2	0	0	1	0	5.3947	-0.839451	-0.839817	-0.0172389	1	1.63099e-05	39	2.3396	1.44776e-05
2	0	0	1	0	5.4947	-0.849449	-0.849779	-0.0194143	1	1.44304e-05	39	2.4396	1.64978e-05
2	0	0	1	0	5.5947	-0.859447	-0.859819	-0.0215182	1	1.2337e-05	39	2.5396	1.85017e-05
2	0	0	1	0	5.6945	-0.869445	-0.869797	-0.023776	1	1.00328e-05	39	2.6394	2.06803e-05
2	0	0	1	0	5.7945	-0.879444	-0.879807	-0.0261628	1	7.50448e-06	39	2.7394	2.30182e-05
2	0	0	1	0	5.8945	-0.889442	-0.889783	-0.028035	1	4.76029e-06	39	2.8394	2.49451e-05
2	0	0	1	0	5.9945	-0.89944	-0.899779	-0.0301609	1	1.82017e-06	39	2.9394	2.71382e-05
2	0	0	1	0	6.0945	-0.909438	-0.909775	-0.0319366	1	-1.32578e-06	39	3.0394	2.90551e-05
2	0	0	1	0	6.1945	-0.919437	-0.919765	-0.0338055	1	-4.65944e-06	39	3.1394	3.10931e-05
2	0	0	1	0	6.2945	-0.929435	-0.929774	-0.0356659	1	-8.18424e-06	39	3.2394	3.31612e-05
2	0	0	1	0	6.3945	-0.939433	-0.939785	-0.0376595	1	-1.18936e-05	39	3.3394	3.53918e-05
2	0	0	1	0	6.4945	-0.949431	-0.94975	-0.0395183	1	-1.57862e-05	39	3.4394	3.75325e-05
2	0	0	1	0	6.5945	-0.95943	-0.959771	-0.0417132	1	-1.9887e-05	39	3.5394	4.00352e-05
2	0	0	1	0	6.6945	-0.969428	-0.969736	-0.0431276	1	-2.4165e-05	39	3.6394	4.18224e-05
2	0	0	1	0	6.7945	-0.979426	-0.979752	-0.0449884	1	-2.86166e-05	39	3.7394	4.40775e-05
2	0	0	1	0	6.8943	-0.989424	-0.989742	-0.0466235	1	-3.32256e-05	39	3.8392	4.61452e-05
2	0	0	1	0	6.9943	-0.999423	-0.999745	-0.0478765	1	-3.79876e-05	39	3.9392	4.78642e-05
2	0	0	1	0	7.0943	-1.00942	-1.00975	-0.049091	1	-4.2875e-05	39	4.0392	4.95694e-05
2	0	0	1	0	7.1943	-1.01942	-1.01975	-0.0502384	1	-4.78732e-05	39	4.1392	5.12305e-05
2	0	0	1	0	7.2943	-1.02942	-1.02975	-0.0513359	1	-5.29879e-05	39	4.2392	5.28631e-05
2	0	0	1	0	7.3943	-1.03942	-1.03975	-0.0526694	1	-5.82192e-05	39	4.3392	5.47631e-05
2	0	0	1	0	7.4943	-1.04941	-1.04973	-0.0540899	1	-6.35899e-05	39	4.4392	5.678e-05
2	0	0	1	0	7.5943	-1.05941	-1.05973	-0.0564988	1	-6.91475e-05	39	4.5392	5.98737e-05
2	0	0	1	0	7.6943	-1.06941	-1.06976	-0.0601956	1	-7.49965e-05	39	4.6392	6.43946e-05
2	0	0	1	0	7.7943	-1.07941	-1.07975	-0.0666198	1	-8.13291e-05	39	4.7392	7.19325e-05
2	0	0	1	0	7.8943	-1.08941	-1.08976	-0.0769419	1	-8.8494e-05	39	4.8392	8.38481e-05
2	0	0	1	0	7.9941	-1.09941	-1.09973	-0.0919901	1	-9.69158e-05	39	4.939	0.000101164
2	0	0	1	0	8.0941	-1.1094	-1.10973	-0.110975	1	-0.000107064	39	5.039	0.000123152
2	0	0	1	0	8.1941	-1.1194	-1.11973	-0.13172	1	-0.000119223	39	5.139	0.000147491
2	0	0	1	0	8.2941	-1.1294	-1.12973	-0.151082	1	-0.000133397	39	5.239	0.000170682
2	0	0	1	0	8.3941	-1.1394	-1.13973	-0.16782	1	-0.00014939	39	5.339	0.000191269
2	0	0	1	0	8.4941	-1.1494	-1.14974	-0.184568	1	-0.000167022	39	5.439	0.000212205
2	0	0	1	0	8.5941	-1.15939	-1.15972	-0.215502	1	-0.000186811	39	5.539	0.000249922
2	0	0	1	0	8.6941	-1.16939	-1.16972	-0.30929	1	-0.000212324	39	5.639	0.000361781
2	0	0	1	0	8.7941	-1.17939	-1.17972	-0.479205	1	-0.000251489	39	5.739	0.000565326
2	0	0	1	0	8.8941	-1.18939	-1.18972	-0.642009	1	-0.000307924	39	5.839	0.000763813
2	0	0	1	0	8.9941	-1.19939	-1.19972	-0.745437	1	-0.000377915	39	5.939	0.00089432
2	0	0	1	0	9.0939	-1.20939	-1.20971	-0.789742	1	-0.000454922	39	6.0388	0.000955361
2	0	0	1	0	9.1939	-1.21938	-1.21974	-0.797598	1	-0.000534472	39	6.1388	0.000972861
2	0	0	1	0	9.2939	-1.22938	-1.22973	-0.801605	1	-0.000614344	39	6.2388	0.000985761
2	0	0	1	0	9.3939	-1.23938	-1.23973	-0.808273	1	-0.000694847	39	6.3388	0.00100204
2	0	0	1	0	9.4939	-1.24938	-1.2497	-0.821269	1	-0.000776188	39	6.4388	0.00102634
2	0	0	1	0	9.5939	-1.25938	-1.25972	-0.843712	1	-0.000859503	39	6.5388	0.00106284
2	0	0	1	0	9.6939	-1.26938	-1.26973	-0.882481	1	-0.000945638	39	6.6388	0.00112051
2	0	0	1	0	9.7939	-1.27937	-1.2797	-0.931761	1	-0.00103618	39	6.7388	0.00119237
2	0	0	1	0	9.8939	-1.28937	-1.2897	-0.993021	1	-0.00113206	39	6.8388	0.0012807
2	0	0	1	0	9.9939	-1.29937	-1.2997	-1.07183	1	-0.00123525	39	6.9388	0.00139306
2	0	0	1	0	10.0939	-1.30937	-1.3097	-1.19152	1	-0.00134797	39	7.0388	0.00156053
2	0	0	1	0	10.1939	-1.31937	-1.3197	-1.34813	1	-0.00147458	39	7.1388	0.00177913
2	0	0	1	0	10.2937	-1.32936	-1.32969	-1.54105	1	-0.00161832	39	7.2386	0.00204911
2	0	0	1	0	10.3937	-1.33936	-1.33971	-1.74459	1	-0.00178266	39	7.3386	0.00233725
2	0	0	1	0	10.4937	-1.34936	-1.34969	-1.96822	1	-0.00196838	39	7.4386	0.00265649
2	0	0	1	1	10.5763	-1.34246	-1.3428	-1.81878	2	-0.00212635	39	7.5212	0.00244225
2	0	0	1	1	10.6763	-1.33246	-1.33279	-1.58325	2	-0.00229631	39	7.6212	0.00211014
2	0	0	1	1	10.7763	-1.32247	-1.32278	-1.35488	2	-0.00244277	39	7.7212	0.00179221
2	0	0	1	1	10.8761	-1.31247	-1.31279	-1.13636	2	-0.00256638	39	7.821	0.0014918
2	0	0	1	1	10.9761	-1.30247	-1.3028	-0.934081	2	-0.00266907	39	7.921	0.00121692
2	0	0	1	1	11.0761	-1.29247	-1.2928	-0.770866	2	-0.00275385	39	8.021	0.000996577
2	0	0	1	1	11.1761	-1.28247	-1.28278	-0.631968	2	-0.00282331	39	8.121	0.000810676
2	0	0	1	1	11.2761	-1.27247	-1.2728	-0.521395	2	-0.00288037	39	8.221	0.000663633
2	0	0	1	1	11.3761	-1.26248	-1.2628	-0.429705	2	-0.00292768	39	8.321	0.00054263
2	0	0	1	1	11.4761	-1.25248	-1.25283	-0.363079	2	-0.00296693	39	8.421	0.000454876
2	0	0	1	1	11.5761	-1.24248	-1.24283	-0.304507	2	-0.00299999	39	8.521	0.000378449
2	0	0	1	1	11.6761	-1.23248	-1.23284	-0.260014	2	-0.0030279	39	8.621	0.000320555
2	0	0	1	1	11.7761	-1.22248	-1.22281	-0.222908	2	-0.00305176	39	8.721	0.000272575
2	0	0	1	1	11.8761	-1.21249	-1.21283	-0.191694	2	-0.00307231	39	8.821	0.000232491
2	0	0	1	1	11.9759	-1.20249	-1.2028	-0.165336	2	-0.00308993	39	8.9208	0.000198867
2	0	0	1	1	12.0759	-1.19249	-1.19283	-0.143786	2	-0.00310518	39	9.0208	0.000171512
2	0	0	1	1	12.1759	-1.18249	-1.18283	-0.123987	2	-0.00311838	39	9.1208	0.000146655
2	0	0	1	1	12.2759	-1.17249	-1.17283	-0.106839	2	-0.00312977	39	9.2208	0.000125305
2	0	0	1	1	12.3759	-1.16249	-1.16283	-0.0909059	2	-0.0031395	39	9.3208	0.000105708
2	0	0	1	1	12.4759	-1.1525	-1.15284	-0.0762574	2	-0.00314768	39	9.4208	8.79129e-05
2	0	0	1	1	12.5759	-1.1425	-1.14286	-0.0626425	2	-0.00315445	39	9.5208	7.15914e-05
2	0	0	1	1	12.6759	-1.1325	-1.13283	-0.0499427	2	-0.0031599	39	9.6208	5.65765e-05
2	0	0	1	1	12.7759	-1.1225	-1.12284	-0.0382168	2	-0.00316415	39	9.7208	4.29114e-05
2	0	0	1	1	12.8759	-1.1125	-1.11285	-0.0277044	2	-0.00316729	39	9.8208	3.08309e-05
2	0	0	1	1	12.9759	-1.1025	-1.10285	-0.017586	2	-0.0031694	39	9.9208	1.93947e-05
2	0	0	1	1	13.0757	-1.09251	-1.09287	-0.00833783	2	-0.00317054	39	10.0206	9.11216e-06
2	1	0	1	1	13.1757	-1.08251	-1.08285	0.000388872	2	-0.00317079	39	0.01	-4.21091e-07
2	1	0	1	1	13.2757	-1.07251	-1.07285	0.00813365	2	-0.00317021	39	0.11	-8.72617e-06
2	1	0	1	1	13.3757	-1.06251	-1.06288	0.0158503	2	-0.00316885	39	0.21	-1.6847e-05
2	1	0	1	1	13.4757	-1.05251	-1.05286	0.0232232	2	-0.00316675	39	0.31	-2.44508e-05
2	1	0	1	1	13.5757	-1.04252	-1.04288	0.0311532	2	-0.00316389	39	0.41	-3.24891e-05
2	1	0	1	1	13.6757	-1.03252	-1.03287	0.0400707	2	-0.0031602	39	0.51	-4.13879e-05
2	1	0	1	1	13.7757	-1.02252	-1.02287	0.0502417	2	-0.00315554	39	0.61	-5.13905e-05
2	1	0	1	1	13.8757	-1.01252	-1.01287	0.0607587	2	-0.00314982	39	0.71	-6.15406e-05
2	1	0	1	1	13.9757	-1.00252	-1.00288	0.0690938	2	-0.00314314	39	0.81	-6.92925e-05
2	1	0	1	1	14.0757	-0.992524	-0.992884	0.0731373	2	-0.00313584	39	0.91	-7.26169e-05
2	1	0	1	1	14.1757	-0.982526	-0.982853	0.0760486	2	-0.00312824	39	1.01	-7.47446e-05
2	1	0	1	1	14.2755	-0.972527	-0.972888	0.0810705	2	-0.00312027	39	1.1098	-7.88725e-05
2	1	0	1	1	14.3755	-0.962529	-0.962886	0.0885437	2	-0.00311165	39	1.2098	-8.52575e-05
2	1	0	1	1	14.4755	-0.952531	-0.952871	0.0985692	2	-0.00310216	39	1.3098	-9.39238e-05
2	1	0	1	1	14.5755	-0.942533	-0.942889	0.111156	2	-0.00309156	39	1.4098	-0.000104808
2	1	0	1	1	14.6755	-0.932534	-0.932863	0.127023	2	-0.00307953	39	1.5098	-0.000118495
2	1	0	1	1	14.7755	-0.922536	-0.92289	0.14619	2	-0.00306575	39	1.6098	-0.000134917
2	1	0	1	1	14.8755	-0.912538	-0.912864	0.167897	2	-0.00304992	39	1.7098	-0.000153267
2	1	0	1	1	14.9755	-0.90254	-0.902863	0.192039	2	-0.00303178	39	1.8098	-0.000173385
2	1	0	1	1	15.0755	-0.892541	-0.892879	0.216896	2	-0.0030112	39	1.9098	-0.000193661
2	1	0	1	1	15.1755	-0.882543	-0.882885	0.241513	2	-0.00298812	39	2.0098	-0.000213228
2	1	0	1	1	15.2755	-0.872545	-0.872882	0.263122	2	-0.00296269	39	2.1098	-0.000229674
2	1	0	1	1	15.3753	-0.862547	-0.862895	0.278922	2	-0.00293544	39	2.2096	-0.00024068
2	1	0	1	1	15.4753	-0.852549	-0.852866	0.287487	2	-0.0029069	39	2.3096	-0.000245188
2	1	0	1	1	15.5753	-0.84255	-0.842902	0.287614	2	-0.00287794	39	2.4096	-0.00024243
2	1	0	1	1	15.6753	-0.832552	-0.832879	0.283311	2	-0.00284922	39	2.5096	-0.000235964
2	1	0	1	1	15.7753	-0.822554	-0.822883	0.276411	2	-0.0028211	39	2.6096	-0.000227454
2	1	0	1	1	15.8753	-0.812555	-0.812899	0.269023	2	-0.00279368	39	2.7096	-0.000218688
2	1	0	1	1	15.9753	-0.802557	-0.80287	0.261234	2	-0.00276704	39	2.8096	-0.000209737
2	1	0	1	1	16.0753	-0.792559	-0.792887	0.253221	2	-0.00274118	39	2.9096	-0.000200776
2	1	0	1	1	16.1753	-0.782561	-0.782899	0.244444	2	-0.00271617	39	3.0096	-0.000191375
2	1	0	1	1	16.2753	-0.772563	-0.772885	0.235785	2	-0.00269202	39	3.1096	-0.000182234
2	1	0	1	1	16.3753	-0.762564	-0.7629	0.226471	2	-0.0026688	39	3.2096	-0.000172774
2	1	0	1	1	16.4751	-0.752566	-0.752891	0.217436	2	-0.00264653	39	3.3094	-0.000163706
2	1	0	1	1	16.5751	-0.742568	-0.742923	0.208575	2	-0.00262511	39	3.4094	-0.000154955
2	1	0	1	1	16.6751	-0.73257	-0.73293	0.200211	2	-0.00260457	39	3.5094	-0.000146741
2	1	0	1	1	16.7751	-0.722571	-0.722925	0.191968	2	-0.00258485	39	3.6094	-0.000138778
2	1	0	1	1	16.8751	-0.712573	-0.712913	0.184783	2	-0.00256589	39	3.7094	-0.000131734
2	1	0	1	1	16.9751	-0.702575	-0.70293	0.178609	2	-0.00254762	39	3.8094	-0.00012555
2	1	0	1	1	17.0751	-0.692577	-0.692941	0.172825	2	-0.00252995	39	3.9094	-0.000119758
2	1	0	1	1	17.1751	-0.682578	-0.682926	0.167516	2	-0.00251284	39	4.0094	-0.000114401
2	1	0	1	1	17.2751	-0.67258	-0.672938	0.162917	2	-0.00249622	39	4.1094	-0.000109633
2	1	0	1	1	17.3751	-0.662582	-0.662937	0.15878	2	-0.00248003	39	4.2094	-0.000105261
2	1	0	1	1	17.4751	-0.652584	-0.652957	0.155314	2	-0.00246424	39	4.3094	-0.000101413
2	1	0	1	1	17.5751	-0.642585	-0.64294	0.152011	2	-0.00244877	39	4.4094	-9.77337e-05
2	1	0	1	1	17.6749	-0.632587	-0.632936	0.149143	2	-0.00243363	39	4.5092	-9.43978e-05
2	1	0	1	1	17.7749	-0.622589	-0.622938	0.146539	2	-0.00241875	39	4.6092	-9.12849e-05
2	1	0	1	1	17.8749	-0.612591	-0.612951	0.144022	2	-0.00240412	39	4.7092	-8.82786e-05
2	1	0	1	1	17.9749	-0.602593	-0.602969	0.141339	2	-0.00238975	39	4.8092	-8.52233e-05
2	1	0	1	1	18.0749	-0.592594	-0.592945	0.139061	2	-0.00237563	39	4.9092	-8.24554e-05
2	1	0	1	1	18.1749	-0.582596	-0.582964	0.136612	2	-0.00236174	39	5.0092	-7.96401e-05
2	1	0	1	1	18.2749	-0.572598	-0.572942	0.13374	2	-0.00234812	39	5.1092	-7.6625e-05
2	1	0	1	1	18.3749	-0.5626	-0.562955	0.131148	2	-0.00233477	39	5.2092	-7.38306e-05
2	1	0	1	1	18.4749	-0.552601	-0.552978	0.128601	2	-0.00232168	39	5.3092	-7.11134e-05
2	1	0	1	1	18.5749	-0.542603	-0.542968	0.12612	2	-0.00230885	39	5.4092	-6.84791e-05
2	1	0	1	1	18.6749	-0.532605	-0.532981	0.123281	2	-0.00229627	39	5.5092	-6.57062e-05
2	1	0	1	1	18.7747	-0.522607	-0.52297	0.12107	2	-0.00228397	39	5.609	-6.3316e-05
2	1	0	1	1	18.8747	-0.512608	-0.512979	0.118701	2	-0.00227189	39	5.709	-6.08911e-05
2	1	0	1	1	18.9747	-0.50261	-0.50296	0.116267	2	-0.00226005	39	5.809	-5.84775e-05
2	1	0	1	1	19.0747	-0.492612	-0.492969	0.114426	2	-0.00224843	39	5.909	-5.64085e-05
2	1	0	1	1	19.1747	-0.482614	-0.482957	0.11198	2	-0.00223703	39	6.009	-5.40814e-05
2	1	0	1	1	19.2747	-0.472615	-0.472985	0.110116	2	-0.00222583	39	6.109	-5.20833e-05
2	1	0	1	1	19.3747	-0.462617	-0.462967	0.108145	2	-0.00221482	39	6.209	-5.00677e-05
2	1	0	1	1	19.4747	-0.452619	-0.452969	0.106434	2	-0.00220399	39	6.309	-4.82112e-05
2	1	0	1	1	19.5747	-0.442621	-0.442967	0.104843	2	-0.00219332	39	6.409	-4.64418e-05
2	1	0	1	1	19.6747	-0.432622	-0.433014	0.103449	2	-0.00218282	39	6.509	-4.47948e-05
2	1	0	1	1	19.7747	-0.422624	-0.422997	0.101879	2	-0.00217246	39	6.609	-4.30943e-05
2	1	0	1	1	19.8746	-0.412617	-0.412982	0.100652	2	-0.00216225	39	6.7089	-4.15674e-05
2	1	0	1	1	19.9745	-0.402628	-0.402969	0.0992148	2	-0.00215217	39	6.8088	-3.99805e-05
2	1	0	1	1	20.0745	-0.392629	-0.392983	0.0981255	2	-0.00214221	39	6.9088	-3.85616e-05
2	1	0	1	1	20.1745	-0.382631	-0.382999	0.096722	2	-0.00213238	39	7.0088	-3.70445e-05
2	1	0	1	1	20.2745	-0.372633	-0.372992	0.0956887	2	-0.00212267	39	7.1088	-3.56911e-05
2	1	0	1	1	20.3745	-0.362635	-0.362985	0.0947561	2	-0.00211307	39	7.2088	-3.43951e-05
2	1	0	1	1	20.4745	-0.352637	-0.352984	0.0936723	2	-0.00210357	39	7.3088	-3.30648e-05
2	1	0	1	1	20.5745	-0.342638	-0.342997	0.0927848	2	-0.00209416	39	7.4088	-3.18249e-05
2	1	0	1	1	20.6745	-0.33264	-0.333005	0.0919581	2	-0.00208484	39	7.5088	-3.06225e-05
2	1	0	1	1	20.7745	-0.322642	-0.322995	0.0908467	2	-0.00207562	39	7.6088	-2.9343e-05
2	1	0	1	1	20.8745	-0.312644	-0.312995	0.0902291	2	-0.00206649	39	7.7088	-2.82413e-05
2	1	0	1	1	20.9745	-0.302645	-0.303019	0.0893261	2	-0.00205744	39	7.8088	-2.70675e-05
2	1	0	1	1	21.0569	-0.305545	-0.305895	0.0773593	2	-0.00205062	39	7.8912	-2.36638e-05
2	1	0	1	1	21.1569	-0.315543	-0.315896	0.0702851	2	-0.00204333	39	7.9912	-2.22028e-05
2	1	0	1	1	21.2569	-0.325541	-0.325898	0.0646865	2	-0.00203666	39	8.0912	-2.10812e-05
2	1	0	1	1	21.3569	-0.33554	-0.335892	0.0599501	2	-0.00203051	39	8.1912	-2.01368e-05
2	1	0	1	1	21.4569	-0.345538	-0.345898	0.0561473	2	-0.00202478	39	8.2912	-1.94212e-05
2	1	0	1	1	21.5569	-0.355536	-0.355879	0.0527181	2	-0.00201942	39	8.3912	-1.87613e-05
2	1	0	1	1	21.6569	-0.365534	-0.365886	0.0495378	2	-0.00201439	39	8.4912	-1.81252e-05
2	1	0	1	1	21.7569	-0.375533	-0.375904	0.0467398	2	-0.00200966	39	8.5912	-1.75697e-05
2	1	0	1	1	21.8569	-0.385531	-0.385879	0.0441602	2	-0.0020052	39	8.6912	-1.70405e-05
2	1	0	1	1	21.9569	-0.395529	-0.39588	0.0418228	2	-0.00200097	39	8.7912	-1.65568e-05
2	1	0	1	1	22.0569	-0.405527	-0.405877	0.039721	2	-0.00199696	39	8.8912	-1.61219e-05
2	1	0	1	1	22.1567	-0.415525	-0.415871	0.0379971	2	-0.00199315	39	8.991	-1.58019e-05
2	1	0	1	1	22.2567	-0.425524	-0.425887	0.0361406	2	-0.00198953	39	9.091	-1.53918e-05
2	1	0	1	1	22.3567	-0.435522	-0.435883	0.0346723	2	-0.00198607	39	9.191	-1.51131e-05
2	1	0	1	1	22.4567	-0.44552	-0.445856	0.0331422	2	-0.00198277	39	9.291	-1.47767e-05
2	1	0	1	1	22.5567	-0.455518	-0.455852	0.0318876	2	-0.0019796	39	9.391	-1.4536e-05
2	1	0	1	1	22.6567	-0.465517	-0.465846	0.0304196	2	-0.00197656	39	9.491	-1.41708e-05
2	1	0	1	1	22.7567	-0.475515	-0.475849	0.0292728	2	-0.00197365	39	9.591	-1.39294e-05
2	1	0	1	1	22.8567	-0.485513	-0.485861	0.0281863	2	-0.00197085	39	9.691	-1.36946e-05
2	1	0	1	1	22.9567	-0.495511	-0.495855	0.0269949	2	-0.00196816	39	9.791	-1.33856e-05
2	1	0	1	1	23.0567	-0.50551	-0.50584	0.0262265	2	-0.00196556	39	9.891	-1.32664e-05
2	1	0	1	1	23.1567	-0.515508	-0.51586	0.0250058	2	-0.00196307	39	9.991	-1.28995e-05
2	1	0	1	1	23.2567	-0.525506	-0.525861	0.0242551	2	-0.00196066	39	10.091	-1.27548e-05
2	1	0	1	1	23.3565	-0.535504	-0.535862	0.0233183	2	-0.00195836	39	10.1908	-1.24954e-05
2	1	0	1	1	23.4565	-0.545503	-0.545835	0.0225553	2	-0.00195612	39	10.2908	-1.23115e-05
2	1	0	1	1	23.5565	-0.555501	-0.555853	0.0218709	2	-0.00195398	39	10.3908	-1.2157e-05
2	1	0	1	1	23.6565	-0.565499	-0.565865	0.0209152	2	-0.0019519	39	10.4908	-1.18352e-05
2	1	0	1	1	23.7565	-0.575497	-0.575848	0.0204917	2	-0.00194989	39	10.5908	-1.18001e-05
2	1	0	1	1	23.8565	-0.585495	-0.585854	0.0196665	2	-0.00194796	39	10.6908	-1.15217e-05
2	1	0	1	1	23.9565	-0.595494	-0.595821	0.0188603	2	-0.0019461	39	10.7908	-1.12374e-05
2	1	0	1	1	24.0565	-0.605492	-0.605856	0.0182151	2	-0.00194431	39	10.8908	-1.10357e-05
2	1	0	1	1	24.1565	-0.61549	-0.615858	0.017622	2	-0.00194259	39	10.9908	-1.08526e-05
2	1	0	1	1	24.2565	-0.625488	-0.625852	0.0171153	2	-0.00194093	39	11.0908	-1.07117e-05
2	1	0	1	1	24.3565	-0.635487	-0.635847	0.0165471	2	-0.00193933	39	11.1908	-1.05214e-05
2	1	0	1	1	24.4563	-0.645485	-0.645835	0.0158992	2	-0.00193779	39	11.2906	-1.02682e-05
2	1	0	1	1	24.5563	-0.655483	-0.655812	0.0152737	2	-0.0019363	39	11.3906	-1.00167e-05
2	1	0	1	1	24.6563	-0.665481	-0.665834	0.0145647	2	-0.00193488	39	11.4906	-9.69766e-06
2	1	0	1	1	24.7563	-0.67548	-0.675812	0.0140688	2	-0.00193352	39	11.5906	-9.50789e-06
2	1	0	1	1	24.8563	-0.685478	-0.685821	0.0133789	2	-0.00193222	39	11.6906	-9.1755e-06
2	1	0	1	1	24.9563	-0.695476	-0.695828	0.0127795	2	-0.00193099	39	11.7906	-8.89232e-06
2	1	0	1	1	25.0563	-0.705474	-0.705835	0.0121387	2	-0.00192983	39	11.8906	-8.56793e-06
2	1	0	1	1	25.1563	-0.715473	-0.715814	0.0113465	2	-0.00192873	39	11.9906	-8.12201e-06
2	1	0	1	1	25.2563	-0.725471	-0.725821	0.0106957	2	-0.0019277	39	12.0906	-7.76314e-06
2	1	0	1	1	25.3563	-0.735469	-0.73581	0.0100348	2	-0.00192675	39	12.1906	-7.3837e-06
2	1	0	1	1	25.4563	-0.745467	-0.745796	0.00921932	2	-0.00192587	39	12.2906	-6.87573e-06
2	1	0	1	1	25.5561	-0.755466	-0.75579	0.00817931	2	-0.00192509	39	12.3904	-6.18184e-06
2	1	0	1	1	25.6561	-0.765464	-0.765808	0.00714829	2	-0.0019244	39	12.4904	-5.47422e-06
2	1	0	1	1	25.7561	-0.775462	-0.775809	0.00619453	2	-0.00192381	39	12.5904	-4.80577e-06
2	1	0	1	1	25.8561	-0.78546	-0.785814	0.00496387	2	-0.00192333	39	12.6904	-3.90068e-06
2	1	0	1	1	25.9561	-0.795459	-0.795779	0.00393353	2	-0.00192296	39	12.7904	-3.13022e-06
2	1	0	1	1	26.0561	-0.805457	-0.805801	0.00247124	2	-0.00192272	39	12.8904	-1.99133e-06
2	1	0	1	1	26.1561	-0.815455	-0.815792	0.00127279	2	-0.00192262	39	12.9904	-1.03834e-06
2	0	0	1	1	26.2561	-0.825453	-0.825791	-0.000578425	2	-0.00192269	39	0.08	4.77658e-07
2	0	0	1	1	26.3561	-0.835451	-0.835792	-0.0022288	2	-0.00192292	39	0.18	1.86281e-06
2	0	0	1	1	26.4561	-0.84545	-0.845804	-0.00392071	2	-0.0019233	39	0.28	3.31615e-06
2	0	0	1	1	26.5561	-0.855448	-0.855767	-0.0055577	2	-0.00192386	39	0.38	4.75609e-06
2	0	0	1	1	26.6561	-0.865446	-0.865785	-0.00692295	2	-0.00192458	39	0.48	5.99379e-06
2	0	0	1	1	26.7559	-0.875445	-0.87576	-0.0085188	2	-0.00192545	39	0.5798	7.46042e-06
2	0	0	1	1	26.8559	-0.885443	-0.885771	-0.00998137	2	-0.00192645	39	0.6798	8.84121e-06
2	0	0	1	1	26.9559	-0.895441	-0.895775	-0.0112029	2	-0.0019276	39	0.7798	1.00353e-05
2	0	0	1	1	27.0559	-0.905439	-0.905759	-0.0123264	2	-0.00192885	39	0.8798	1.11647e-05
2	0	0	1	1	27.1559	-0.915437	-0.915763	-0.0134904	2	-0.00193023	39	0.9798	1.2354e-05
2	0	0	1	1	27.2559	-0.925436	-0.925769	-0.0148002	2	-0.00193172	39	1.0798	1.37015e-05
2	0	0	1	1	27.3559	-0.935434	-0.935759	-0.0160969	2	-0.00193334	39	1.1798	1.50628e-05
2	0	0	1	1	27.4559	-0.945432	-0.945755	-0.0176619	2	-0.00193511	39	1.2798	1.67038e-05
2	0	0	1	1	27.5559	-0.95543	-0.955748	-0.0196976	2	-0.00193704	39	1.3798	1.88259e-05
2	0	0	1	1	27.6559	-0.965429	-0.965742	-0.0220529	2	-0.00193922	39	1.4798	2.12974e-05
2	0	0	1	1	27.7559	-0.975427	-0.975752	-0.0250814	2	-0.00194166	39	1.5798	2.44733e-05
2	0	0	1	1	27.8557	-0.985425	-0.985746	-0.0286836	2	-0.00194443	39	1.6796	2.82747e-05
2	0	0	1	1	27.9557	-0.995423	-0.995771	-0.0331344	2	-0.0019476	39	1.7796	3.29943e-05
2	0	0	1	1	28.0557	-1.00542	-1.00574	-0.0377967	2	-0.00195123	39	1.8796	3.80137e-05
2	0	0	1	1	28.1557	-1.01542	-1.01573	-0.0434447	2	-0.00195539	39	1.9796	4.41282e-05
2	0	0	1	1	28.2557	-1.02542	-1.02576	-0.0496257	2	-0.00196012	39	2.0796	5.09041e-05
2	0	0	1	1	28.3557	-1.03542	-1.03577	-0.0552725	2	-0.00196544	39	2.1796	5.72496e-05
2	0	0	1	1	28.4557	-1.04541	-1.04577	-0.0622241	2	-0.00197139	39	2.2796	6.50719e-05
2	0	0	1	1	28.5557	-1.05541	-1.05573	-0.0695472	2	-0.00197804	39	2.3796	7.34234e-05
2	0	0	1	1	28.6557	-1.06541	-1.06575	-0.0750594	2	-0.00198539	39	2.4796	7.99945e-05
2	0	0	1	1	28.7557	-1.07541	-1.07574	-0.0775832	2	-0.00199311	39	2.5796	8.3459e-05
2	0	0	1	1	28.8557	-1.08541	-1.08572	-0.0819001	2	-0.00200115	39	2.6796	8.89206e-05
2	0	0	1	1	28.9555	-1.09541	-1.09573	-0.0878373	2	-0.00200968	39	2.7794	9.62455e-05
2	0	0	1	1	29.0555	-1.1054	-1.10573	-0.0960078	2	-0.00201895	39	2.8794	0.000106159
2	0	0	1	1	29.1555	-1.1154	-1.11573	-0.105453	2	-0.0020291	39	2.9794	0.000117657
2	0	0	1	1	29.2555	-1.1254	-1.12572	-0.114598	2	-0.00204018	39	3.0794	0.000129005
2	0	0	1	1	29.3555	-1.1354	-1.13572	-0.121785	2	-0.00205211	39	3.1794	0.000138313
2	0	0	1	1	29.4555	-1.1454	-1.14573	-0.127572	2	-0.00206469	39	3.2794	0.000146162
2	0	0	1	1	29.5555	-1.1554	-1.15571	-0.130999	2	-0.0020777	39	3.3794	0.000151397
2	0	0	1	1	29.6555	-1.16539	-1.16573	-0.133199	2	-0.002091	39	3.4794	0.000155274
2	0	0	1	1	29.7555	-1.17539	-1.17571	-0.134991	2	-0.00210448	39	3.5794	0.000158709
2	0	0	1	1	29.8555	-1.18539	-1.1857	-0.138228	2	-0.00211819	39	3.6794	0.000163897
2	0	0	1	1	29.9555	-1.19539	-1.19571	-0.143316	2	-0.00213233	39	3.7794	0.000171365
2	0	0	1	1	30.0555	-1.20539	-1.20571	-0.150923	2	-0.00214709	39	3.8794	0.000181969
2	0	0	1	1	30.1553	-1.21538	-1.21569	-0.161201	2	-0.00216273	39	3.9792	0.00019597
2	0	0	1	1	30.2553	-1.22538	-1.22569	-0.173969	2	-0.00217952	39	4.0792	0.000213233
2	0	0	1	1	30.3553	-1.23538	-1.2357	-0.190703	2	-0.00219785	39	4.1792	0.000235652
2	0	0	1	1	30.4553	-1.24538	-1.24574	-0.209468	2	-0.00221791	39	4.2792	0.000260943
2	0	0	1	1	30.5553	-1.25538	-1.25572	-0.233005	2	-0.00224003	39	4.3792	0.00029259
2	0	0	1	1	30.6553	-1.26538	-1.26571	-0.260143	2	-0.00226464	39	4.4792	0.000329266
2	0	0	1	1	30.7553	-1.27537	-1.27572	-0.294883	2	-0.00229245	39	4.5792	0.000376187
2	0	0	1	1	30.8553	-1.28537	-1.2857	-0.342765	2	-0.00232421	39	4.6792	0.000440693
2	0	0	1	1	30.9553	-1.29537	-1.2957	-0.404479	2	-0.00236141	39	4.7792	0.000524083
2	0	0	1	1	31.0553	-1.30537	-1.30568	-0.502647	2	-0.00240661	39	4.8792	0.000656296
2	0	0	1	1	31.1553	-1.31537	-1.3157	-0.631808	2	-0.00246327	39	4.9792	0.000831271
2	0	0	1	1	31.2551	-1.32537	-1.32569	-0.800816	2	-0.00253478	39	5.079	0.00106163
2	0	0	1	1	31.3551	-1.33536	-1.33569	-0.98828	2	-0.00262373	39	5.179	0.00132004
2	0	0	1	1	31.4551	-1.34536	-1.34571	-1.17915	2	-0.002732	39	5.279	0.00158679
2	0	0	1	0	31.5377	-1.34646	-1.34681	-1.21389	3	-0.00283408	39	5.3616	0.00163488
2	0	0	1	0	31.6377	-1.33646	-1.33683	-1.01071	3	-0.00294449	39	5.4616	0.00135114
2	0	0	1	0	31.7377	-1.32647	-1.3268	-0.83468	3	-0.00303648	39	5.5616	0.00110746
2	0	0	1	0	31.8375	-1.31647	-1.31679	-0.67695	3	-0.00311164	39	5.6614	0.000891398
2	0	0	1	0	31.9375	-1.30647	-1.30678	-0.542475	3	-0.00317245	39	5.7614	0.000708893
2	0	0	1	0	32.0375	-1.29647	-1.2968	-0.435353	3	-0.00322113	39	5.8614	0.000564565
2	0	0	1	0	32.1375	-1.28647	-1.28681	-0.354962	3	-0.00326036	39	5.9614	0.000456767
2	0	0	1	0	32.2375	-1.27647	-1.2768	-0.292126	3	-0.00329252	39	6.0614	0.000372988
2	0	0	1	0	32.3375	-1.26648	-1.26682	-0.240272	3	-0.00331896	39	6.1614	0.000304382
2	0	0	1	0	32.4375	-1.25648	-1.25679	-0.201292	3	-0.00334087	39	6.2614	0.000252981
2	0	0	1	0	32.5375	-1.24648	-1.24681	-0.169485	3	-0.0033592	39	6.3614	0.000211316
2	0	0	1	0	32.6375	-1.23648	-1.23683	-0.14488	3	-0.00337474	39	6.4614	0.000179192
2	0	0	1	0	32.7375	-1.22648	-1.22681	-0.123887	3	-0.00338804	39	6.5614	0.000151986
2	0	0	1	0	32.8375	-1.21648	-1.21682	-0.107356	3	-0.00339947	39	6.6614	0.000130634
2	0	0	1	0	32.9373	-1.20649	-1.20684	-0.09339	3	-0.00340934	39	6.7612	0.000112706
2	0	0	1	0	33.0373	-1.19649	-1.19684	-0.0806668	3	-0.00341791	39	6.8612	9.65449e-05
2	0	0	1	0	33.1373	-1.18649	-1.18682	-0.0700439	3	-0.00342534	39	6.9612	8.31292e-05
2	0	0	1	0	33.2373	-1.17649	-1.17682	-0.0600483	3	-0.00343175	39	7.0612	7.06662e-05
2	0	0	1	0	33.3373	-1.16649	-1.16684	-0.0513876	3	-0.00343721	39	7.1612	5.99613e-05
2	0	0	1	0	33.4373	-1.1565	-1.15683	-0.0428481	3	-0.00344181	39	7.2612	4.95681e-05
2	0	0	1	0	33.5373	-1.1465	-1.14683	-0.0349676	3	-0.00344558	39	7.3612	4.01021e-05
2	0	0	1	0	33.6373	-1.1365	-1.13682	-0.0272613	3	-0.00344858	39	7.4612	3.09913e-05
2	0	0	1	0	33.7373	-1.1265	-1.12683	-0.0204136	3	-0.00345087	39	7.5612	2.30027e-05
2	0	0	1	0	33.8373	-1.1165	-1.11685	-0.0142682	3	-0.00345249	39	7.6612	1.59354e-05
2	0	0	1	0	33.9373	-1.1065	-1.10682	-0.00816344	3	-0.0034535	39	7.7612	9.03545e-06
2	0	0	1	0	34.0373	-1.09651	-1.09684	-0.00266473	3	-0.00345394	39	7.8612	2.92277e-06
2	1	0	1	0	34.1371	-1.08651	-1.08682	0.00259131	3	-0.00345384	39	0.06	-2.8163e-06
2	1	0	1	0	34.2371	-1.07651	-1.07685	0.00748235	3	-0.00345324	39	0.16	-8.05736e-06
2	1	0	1	0	34.3371	-1.06651	-1.06685	0.0123989	3	-0.00345213	39	0.26	-1.32277e-05
2	1	0	1	0	34.4371	-1.05651	-1.05684	0.0174607	3	-0.00345052	39	0.36	-1.84531e-05
2	1	0	1	0	34.5371	-1.04651	-1.04686	0.0235032	3	-0.00344835	39	0.46	-2.46047e-05
2	1	0	1	0	34.6371	-1.03652	-1.03686	0.0308155	3	-0.00344554	39	0.56	-3.19512e-05
2	1	0	1	0	34.7371	-1.02652	-1.02687	0.039473	3	-0.00344192	39	0.66	-4.05335e-05
2	1	0	1	0	34.8371	-1.01652	-1.01686	0.0477847	3	-0.00343743	39	0.76	-4.85904e-05
2	1	0	1	0	34.9371	-1.00652	-1.00685	0.0527291	3	-0.00343228	39	0.86	-5.30903e-05
2	1	0	1	0	35.0371	-0.996523	-0.996867	0.0543331	3	-0.00342681	39	0.96	-5.41629e-05
2	1	0	1	0	35.1371	-0.986525	-0.986867	0.0563846	3	-0.00342118	39	1.06	-5.56441e-05
2	1	0	1	0	35.2369	-0.976527	-0.976857	0.060718	3	-0.00341525	39	1.1598	-5.93128e-05
2	1	0	1	0	35.3369	-0.966528	-0.966851	0.0674345	3	-0.00340876	39	1.2598	-6.51991e-05
2	1	0	1	0	35.4369	-0.95653	-0.956871	0.0762833	3	-0.00340148	39	1.3598	-7.29933e-05
2	1	0	1	0	35.5369	-0.946532	-0.946862	0.0877068	3	-0.0033932	39	1.4598	-8.30463e-05
2	1	0	1	0	35.6369	-0.936534	-0.93688	0.101432	3	-0.00338367	39	1.5598	-9.50299e-05
2	1	0	1	0	35.7369	-0.926535	-0.926888	0.117224	3	-0.00337265	39	1.6598	-0.000108653
2	1	0	1	0	35.8369	-0.916537	-0.916872	0.13488	3	-0.00335996	39	1.7598	-0.000123668
2	1	0	1	0	35.9369	-0.906539	-0.906854	0.153267	3	-0.00334548	39	1.8598	-0.000138991
2	1	0	1	0	36.0369	-0.896541	-0.896883	0.172023	3	-0.00332912	39	1.9598	-0.000154284
2	1	0	1	0	36.1369	-0.886543	-0.886895	0.190692	3	-0.00331087	39	2.0598	-0.000169124
2	1	0	1	0	36.2369	-0.876544	-0.876864	0.208115	3	-0.0032908	39	2.1598	-0.000182489
2	1	0	1	0	36.3367	-0.866546	-0.86688	0.222955	3	-0.00326915	39	2.2596	-0.000193276
2	1	0	1	0	36.4367	-0.856548	-0.856888	0.234179	3	-0.00324617	39	2.3596	-0.000200665
2	1	0	1	0	36.5367	-0.84655	-0.846903	0.240564	3	-0.00322228	39	2.4596	-0.000203735
2	1	0	1	0	36.6367	-0.836551	-0.836904	0.242943	3	-0.00319794	39	2.5596	-0.00020332
2	1	0	1	0	36.7367	-0.826553	-0.826874	0.241738	3	-0.00317357	39	2.6596	-0.000199887
2	1	0	1	0	36.8367	-0.816555	-0.816887	0.23859	3	-0.00314944	39	2.7596	-0.000194901
2	1	0	1	0	36.9367	-0.806557	-0.806911	0.233154	3	-0.00312574	39	2.8596	-0.000188135
2	1	0	1	0	37.0367	-0.796558	-0.796887	0.226528	3	-0.00310266	39	2.9596	-0.000180517
2	1	0	1	0	37.1367	-0.78656	-0.786928	0.218714	3	-0.00308031	39	3.0596	-0.000172112
2	1	0	1	0	37.2367	-0.776562	-0.776896	0.21024	3	-0.00305877	39	3.1596	-0.000163334
2	1	0	1	0	37.3367	-0.766564	-0.76692	0.201684	3	-0.0030381	39	3.2596	-0.000154675
2	1	0	1	0	37.4367	-0.756565	-0.756907	0.193244	3	-0.00301827	39	3.3596	-0.000146268
2	1	0	1	0	37.5365	-0.746567	-0.746909	0.185319	3	-0.0029993	39	3.4594	-0.000138416
2	1	0	1	0	37.6365	-0.736569	-0.736904	0.17816	3	-0.00298105	39	3.5594	-0.000131287
2	1	0	1	0	37.7365	-0.726571	-0.726904	0.171132	3	-0.00296351	39	3.6594	-0.000124396
2	1	0	1	0	37.8365	-0.716572	-0.716913	0.164863	3	-0.00294663	39	3.7594	-0.000118192
2	1	0	1	0	37.9365	-0.706574	-0.706931	0.159221	3	-0.00293034	39	3.8594	-0.000112558
2	1	0	1	0	38.0365	-0.696576	-0.69692	0.154215	3	-0.00291459	39	3.9594	-0.000107476
2	1	0	1	0	38.1365	-0.686578	-0.686929	0.149565	3	-0.00289932	39	4.0594	-0.000102741
2	1	0	1	0	38.2365	-0.67658	-0.676909	0.145587	3	-0.00288447	39	4.1594	-9.85494e-05
2	1	0	1	0	38.3365	-0.666581	-0.66692	0.141673	3	-0.00287003	39	4.2594	-9.44845e-05
2	1	0	1	0	38.4365	-0.656583	-0.656915	0.138272	3	-0.00285595	39	4.3594	-9.08331e-05
2	1	0	1	0	38.5365	-0.646585	-0.64693	0.135127	3	-0.0028422	39	4.4594	-8.74176e-05
2	1	0	1	0	38.6363	-0.636586	-0.636926	0.132085	3	-0.00282878	39	4.5592	-8.41282e-05
2	1	0	1	0	38.7363	-0.626588	-0.62692	0.129397	3	-0.00281562	39	4.6592	-8.11218e-05
2	1	0	1	0	38.8363	-0.61659	-0.616917	0.12704	3	-0.00280271	39	4.7592	-7.83731e-05
2	1	0	1	0	38.9363	-0.606592	-0.606916	0.124645	3	-0.00279004	39	4.8592	-7.5649e-05
2	1	0	1	0	39.0363	-0.596594	-0.596902	0.122188	3	-0.00277761	39	4.9592	-7.29342e-05
2	1	0	1	0	39.1363	-0.586595	-0.586919	0.119855	3	-0.00276541	39	5.0592	-7.0345e-05
2	1	0	1	0	39.2363	-0.576597	-0.576938	0.117504	3	-0.00275346	39	5.1592	-6.77923e-05
2	1	0	1	0	39.3363	-0.566599	-0.566946	0.11557	3	-0.00274172	39	5.2592	-6.55219e-05
2	1	0	1	0	39.4363	-0.556601	-0.556966	0.113217	3	-0.0027302	39	5.3592	-6.30582e-05
2	1	0	1	0	39.5363	-0.546602	-0.546961	0.11089	3	-0.00271891	39	5.4592	-6.06526e-05
2	1	0	1	0	39.6363	-0.536604	-0.536976	0.108667	3	-0.00270784	39	5.5592	-5.83517e-05
2	1	0	1	0	39.7362	-0.526606	-0.526958	0.106882	3	-0.00269699	39	5.6591	-5.63225e-05
2	1	0	1	0	39.8361	-0.516608	-0.516947	0.1047	3	-0.00268633	39	5.759	-5.41245e-05
2	1	0	1	0	39.9361	-0.506609	-0.506959	0.103106	3	-0.00267585	39	5.859	-5.22705e-05
2	1	0	1	0	40.0361	-0.496611	-0.496942	0.101212	3	-0.00266555	39	5.959	-5.02967e-05
2	1	0	1	0	40.1361	-0.486613	-0.486955	0.0996712	3	-0.00265543	39	6.059	-4.85354e-05
2	1	0	1	0	40.2361	-0.476615	-0.476963	0.0978787	3	-0.00264547	39	6.159	-4.66845e-05
2	1	0	1	0	40.3361	-0.466616	-0.466945	0.0964772	3	-0.00263568	39	6.259	-4.50495e-05
2	1	0	1	0	40.4361	-0.456618	-0.456955	0.0949022	3	-0.00262603	39	6.359	-4.33661e-05
2	1	0	1	0	40.5361	-0.44662	-0.446972	0.093223	3	-0.00261654	39	6.459	-4.16681e-05
2	1	0	1	0	40.6361	-0.436622	-0.436964	0.0918925	3	-0.0026072	39	6.559	-4.01538e-05
2	1	0	1	0	40.7361	-0.426623	-0.426962	0.090584	3	-0.00259801	39	6.659	-3.8676e-05
2	1	0	1	0	40.8361	-0.416625	-0.416955	0.0893488	3	-0.00258894	39	6.759	-3.72544e-05
2	1	0	1	0	40.9359	-0.406627	-0.40696	0.088005	3	-0.00258	39	6.8588	-3.58145e-05
2	1	0	1	0	41.0359	-0.396629	-0.396952	0.0867893	3	-0.00257116	39	6.9588	-3.44512e-05
2	1	0	1	0	41.1359	-0.386631	-0.386976	0.0856345	3	-0.00256245	39	7.0588	-3.31385e-05
2	1	0	1	0	41.2359	-0.376632	-0.376976	0.0840331	3	-0.00255389	39	7.1588	-3.16785e-05
2	1	0	1	0	41.3359	-0.366634	-0.366964	0.0828185	3	-0.00254545	39	7.2588	-3.03914e-05
2	1	0	1	0	41.4359	-0.356636	-0.35696	0.0821188	3	-0.0025371	39	7.3588	-2.93131e-05
2	1	0	1	0	41.5359	-0.346638	-0.34698	0.0809723	3	-0.00252886	39	7.4588	-2.80958e-05
2	1	0	1	0	41.6359	-0.336639	-0.336966	0.0798726	3	-0.00252073	39	7.5588	-2.69144e-05
2	1	0	1	0	41.7359	-0.326641	-0.326968	0.0787644	3	-0.00251271	39	7.6588	-2.57535e-05
2	1	0	1	0	41.8359	-0.316643	-0.316956	0.0777759	3	-0.00250477	39	7.7588	-2.46515e-05
2	1	0	1	0	41.9359	-0.306645	-0.306982	0.0770928	3	-0.00249693	39	7.8588	-2.36661e-05
2	1	0	1	0	42.0183	-0.301546	-0.30187	0.0691134	3	-0.00249066	39	7.9412	-2.08633e-05
2	1	0	1	0	42.1183	-0.311544	-0.311884	0.063396	3	-0.00248412	39	8.0412	-1.97722e-05
2	1	0	1	0	42.2183	-0.321542	-0.321865	0.059666	3	-0.00247805	39	8.1412	-1.92044e-05
2	1	0	1	0	42.3183	-0.33154	-0.331877	0.0564325	3	-0.00247232	39	8.2412	-1.87287e-05
2	1	0	1	0	42.4183	-0.341538	-0.341862	0.0538615	3	-0.00246688	39	8.3412	-1.84132e-05
2	1	0	1	0	42.5183	-0.351537	-0.351879	0.0516785	3	-0.00246168	39	8.4412	-1.81846e-05
2	1	0	1	0	42.6183	-0.361535	-0.361867	0.0495359	3	-0.0024567	39	8.5412	-1.79254e-05
2	1	0	1	0	42.7183	-0.371533	-0.371842	0.0478114	3	-0.00245191	39	8.6412	-1.77783e-05
2	1	0	1	0	42.8183	-0.381531	-0.381864	0.0459404	3	-0.0024473	39	8.7412	-1.7543e-05
2	1	0	1	0	42.9183	-0.39153	-0.391847	0.0445413	3	-0.00244284	39	8.8412	-1.74534e-05
2	1	0	1	0	43.0183	-0.401528	-0.401861	0.0430077	3	-0.00243853	39	8.9412	-1.72831e-05
2	1	0	1	0	43.1183	-0.411526	-0.411868	0.0417887	3	-0.00243436	39	9.0412	-1.72114e-05
2	1	0	1	0	43.2181	-0.421524	-0.421859	0.0402673	3	-0.00243033	39	9.141	-1.69871e-05
2	1	0	1	0	43.3181	-0.431523	-0.431858	0.0394539	3	-0.00242639	39	9.241	-1.70385e-05
2	1	0	1	0	43.4181	-0.441521	-0.441835	0.0382479	3	-0.00242257	39	9.341	-1.68992e-05
2	1	0	1	0	43.5181	-0.451519	-0.451858	0.0373769	3	-0.00241886	39	9.441	-1.6889e-05
2	1	0	1	0	43.6181	-0.461517	-0.461846	0.0363597	3	-0.00241525	39	9.541	-1.67926e-05
2	1	0	1	0	43.7181	-0.471516	-0.471846	0.0352642	3	-0.00241173	39	9.641	-1.66393e-05
2	1	0	1	0	43.8181	-0.481514	-0.481852	0.0344525	3	-0.0024083	39	9.741	-1.6601e-05
2	1	0	1	0	43.9181	-0.491512	-0.49183	0.0335228	3	-0.00240496	39	9.841	-1.64876e-05
2	1	0	1	0	44.0181	-0.50151	-0.501828	0.0326633	3	-0.00240171	39	9.941	-1.63914e-05
2	1	0	1	0	44.1181	-0.511509	-0.511848	0.0317881	3	-0.00239855	39	10.041	-1.62707e-05
2	1	0	1	0	44.2181	-0.521507	-0.52183	0.0310377	3	-0.00239547	39	10.141	-1.61964e-05
2	1	0	1	0	44.3179	-0.531505	-0.531841	0.0300184	3	-0.00239248	39	10.2408	-1.5965e-05
2	1	0	1	0	44.4179	-0.541503	-0.541839	0.0293423	3	-0.00238957	39	10.3408	-1.58988e-05
2	1	0	1	0	44.5179	-0.551502	-0.551865	0.0286665	3	-0.00238673	39	10.4408	-1.582e-05
2	1	0	1	0	44.6179	-0.5615	-0.561826	0.0276128	3	-0.00238397	39	10.5408	-1.55136e-05
2	1	0	1	0	44.7179	-0.571498	-0.571812	0.0271426	3	-0.00238129	39	10.6408	-1.55205e-05
2	1	0	1	0	44.8179	-0.581496	-0.581829	0.0257071	3	-0.00237871	39	10.7408	-1.49571e-05
2	1	0	1	0	44.9179	-0.591495	-0.591792	0.0252938	3	-0.00237622	39	10.8408	-1.49686e-05
2	1	0	1	0	45.0179	-0.601493	-0.601803	0.0249633	3	-0.00237377	39	10.9408	-1.5023e-05
2	1	0	1	0	45.1179	-0.611491	-0.61182	0.0244443	3	-0.00237136	39	11.0408	-1.49555e-05
2	1	0	1	0	45.2179	-0.621489	-0.621812	0.0235802	3	-0.00236902	39	11.1408	-1.46625e-05
2	1	0	1	0	45.3179	-0.631487	-0.631805	0.0229898	3	-0.00236675	39	11.2408	-1.45251e-05
2	1	0	1	0	45.4177	-0.641486	-0.641815	0.0223397	3	-0.00236454	39	11.3406	-1.4338e-05
2	1	0	1	0	45.5177	-0.651484	-0.651806	0.0217805	3	-0.00236239	39	11.4406	-1.41967e-05
2	1	0	1	0	45.6177	-0.661482	-0.661809	0.0210384	3	-0.00236031	39	11.5406	-1.39234e-05
2	1	0	1	0	45.7177	-0.67148	-0.67179	0.0203162	3	-0.00235829	39	11.6406	-1.36482e-05
2	1	0	1	0	45.8177	-0.681479	-0.68181	0.0197911	3	-0.00235633	39	11.7406	-1.34938e-05
2	1	0	1	0	45.9177	-0.691477	-0.691776	0.0190867	3	-0.00235445	39	11.8406	-1.32037e-05
2	1	0	1	0	46.0177	-0.701475	-0.701801	0.0184894	3	-0.00235263	39	11.9406	-1.29759e-05
2	1	0	1	0	46.1177	-0.711473	-0.711791	0.0178126	3	-0.00235088	39	12.0406	-1.26788e-05
2	1	0	1	0	46.2177	-0.721472	-0.721798	0.0169015	3	-0.00234921	39	12.1406	-1.21995e-05
2	1	0	1	0	46.3177	-0.73147	-0.73178	0.015946	3	-0.00234762	39	12.2406	-1.16689e-05
2	1	0	1	0	46.4177	-0.741468	-0.741781	0.0153807	3	-0.0023461	39	12.3406	-1.14091e-05
2	1	0	1	0	46.5177	-0.751466	-0.751788	0.0143777	3	-0.00234468	39	12.4406	-1.0809e-05
2	1	0	1	0	46.6175	-0.761465	-0.761794	0.0130414	3	-0.00234337	39	12.5404	-9.93487e-06
2	1	0	1	0	46.7175	-0.771463	-0.771794	0.0118683	3	-0.00234217	39	12.6404	-9.1599e-06
2	1	0	1	0	46.8175	-0.781461	-0.781796	0.0107114	3	-0.00234107	39	12.7404	-8.3741e-06
2	1	0	1	0	46.9175	-0.791459	-0.791782	0.00934804	3	-0.00234011	39	12.8404	-7.40161e-06
2	1	0	1	0	47.0175	-0.801458	-0.801783	0.00764112	3	-0.0023393	39	12.9404	-6.12652e-06
2	1	0	1	0	47.1175	-0.811456	-0.811778	0.00597464	3	-0.00233865	39	13.0404	-4.85008e-06
2	1	0	1	0	47.2175	-0.821454	-0.821758	0.00416248	3	-0.00233817	39	13.1404	-3.42055e-06
2	1	0	1	0	47.3175	-0.831452	-0.831794	0.00224746	3	-0.00233789	39	13.2404	-1.86942e-06
2	1	0	1	0	47.4175	-0.84145	-0.841766	0.000288863	3	-0.0023378	39	13.3404	-2.43155e-07
2	0	0	1	0	47.5175	-0.851449	-0.85177	-0.00179168	3	-0.00233792	39	0.09	1.5261e-06
2	0	0	1	0	47.6175	-0.861447	-0.861775	-0.00371614	3	-0.00233823	39	0.19	3.20248e-06
2	0	0	1	0	47.7173	-0.871445	-0.871768	-0.0057217	3	-0.00233874	39	0.2898	4.98799e-06
2	0	0	1	0	47.8173	-0.881443	-0.881747	-0.007338	3	-0.00233943	39	0.3898	6.47026e-06
2	0	0	1	0	47.9173	-0.891442	-0.89175	-0.00922643	3	-0.0023403	39	0.4898	8.22767e-06
2	0	0	1	0	48.0173	-0.90144	-0.901751	-0.0107782	3	-0.00234133	39	0.5898	9.71924e-06
2	0	0	1	0	48.1173	-0.911438	-0.911725	-0.0123643	3	-0.00234251	39	0.6898	1.12728e-05
2	0	0	1	0	48.2173	-0.921436	-0.921753	-0.0136381	3	-0.00234383	39	0.7898	1.2571e-05
2	0	0	1	0	48.3173	-0.931435	-0.93174	-0.0150387	3	-0.00234529	39	0.8898	1.40121e-05
2	0	0	1	0	48.4173	-0.941433	-0.941759	-0.0164209	3	-0.0023469	39	0.9898	1.54645e-05
2	0	0	1	0	48.5173	-0.951431	-0.951751	-0.0179364	3	-0.00234864	39	1.0898	1.7071e-05
2	0	0	1	0	48.6173	-0.961429	-0.961747	-0.0192061	3	-0.00235052	39	1.1898	1.84714e-05
2	0	0	1	0	48.7173	-0.971428	-0.971728	-0.0208251	3	-0.00235254	39	1.2898	2.02364e-05
2	0	0	1	0	48.8171	-0.981426	-0.981738	-0.0222847	3	-0.00235472	39	1.3896	2.18777e-05
2	0	0	1	0	48.9171	-0.991424	-0.99173	-0.0239578	3	-0.00235707	39	1.4896	2.37597e-05
2	0	0	1	0	49.0171	-1.00142	-1.00174	-0.0259945	3	-0.00235959	39	1.5896	2.60397e-05
2	0	0	1	0	49.1171	-1.01142	-1.01175	-0.0283059	3	-0.00236233	39	1.6896	2.86384e-05
2	0	0	1	0	49.2171	-1.02142	-1.02175	-0.0311834	3	-0.00236533	39	1.7896	3.18616e-05
2	0	0	1	0	49.3171	-1.03142	-1.03172	-0.0341729	3	-0.00236862	39	1.8896	3.52568e-05
2	0	0	1	0	49.4171	-1.04142	-1.04173	-0.0365685	3	-0.00237218	39	1.9896	3.80946e-05
2	0	0	1	0	49.5171	-1.05141	-1.05173	-0.0391101	3	-0.00237598	39	2.0896	4.11334e-05
2	0	0	1	0	49.6171	-1.06141	-1.06172	-0.0422098	3	-0.00238008	39	2.1896	4.48151e-05
2	0	0	1	0	49.7171	-1.07141	-1.07173	-0.0446187	3	-0.00238443	39	2.2896	4.78191e-05
2	0	0	1	0	49.8171	-1.08141	-1.08172	-0.0474627	3	-0.00238906	39	2.3896	5.13412e-05
2	0	0	1	0	49.9171	-1.09141	-1.09172	-0.0510402	3	-0.00239402	39	2.4896	5.57214e-05
2	0	0	1	0	50.0169	-1.1014	-1.10171	-0.054864	3	-0.00239932	39	2.5894	6.04442e-05
2	0	0	1	0	50.1169	-1.1114	-1.11171	-0.0579597	3	-0.00240498	39	2.6894	6.44342e-05
2	0	0	1	0	50.2169	-1.1214	-1.1217	-0.060835	3	-0.00241096	39	2.7894	6.82384e-05
2	0	0	1	0	50.3169	-1.1314	-1.1317	-0.0631379	3	-0.00241718	39	2.8894	7.14534e-05
2	0	0	1	0	50.4169	-1.1414	-1.14172	-0.064716	3	-0.0024236	39	2.9894	7.38873e-05
2	0	0	1	0	50.5169	-1.1514	-1.15169	-0.0656188	3	-0.00243014	39	3.0894	7.55726e-05
2	0	0	1	0	50.6169	-1.16139	-1.1617	-0.0666016	3	-0.00243677	39	3.1894	7.73711e-05
2	0	0	1	0	50.7169	-1.17139	-1.17173	-0.0674605	3	-0.00244348	39	3.2894	7.90454e-05
2	0	0	1	0	50.8169	-1.18139	-1.18172	-0.0686089	3	-0.00245028	39	3.3894	8.10765e-05
2	0	0	1	0	50.9169	-1.19139	-1.1917	-0.0705221	3	-0.00245726	39	3.4894	8.40414e-05
2	0	0	1	0	51.0169	-1.20139	-1.2017	-0.0735252	3	-0.00246447	39	3.5894	8.83554e-05
2	0	0	1	0	51.1167	-1.21139	-1.21171	-0.077198	3	-0.00247197	39	3.6892	9.35414e-05
2	0	0	1	0	51.2167	-1.22138	-1.22171	-0.0817023	3	-0.00247991	39	3.7892	9.98165e-05
2	0	0	1	0	51.3167	-1.23138	-1.23171	-0.0874703	3	-0.00248839	39	3.8892	0.000107738
2	0	0	1	0	51.4167	-1.24138	-1.24171	-0.0950397	3	-0.00249752	39	3.9892	0.000118012
2	0	0	1	0	51.5167	-1.25138	-1.25171	-0.103591	3	-0.00250746	39	4.0892	0.000129666
2	0	0	1	0	51.6167	-1.26138	-1.26171	-0.114749	3	-0.00251838	39	4.1892	0.00014478
2	0	0	1	0	51.7167	-1.27137	-1.2717	-0.12868	3	-0.00253054	39	4.2892	0.000163642
2	0	0	1	0	51.8167	-1.28137	-1.28168	-0.145313	3	-0.00254422	39	4.3892	0.000186244
2	0	0	1	0	51.9167	-1.29137	-1.29169	-0.168015	3	-0.00255985	39	4.4892	0.000217023
2	0	0	1	0	52.0167	-1.30137	-1.30169	-0.19667	3	-0.00257805	39	4.5892	0.000256004
2	0	0	1	0	52.1167	-1.31137	-1.31167	-0.234215	3	-0.0025995	39	4.6892	0.000307213
2	0	0	1	0	52.2166	-1.32137	-1.3217	-0.28458	3	-0.00262525	39	4.7891	0.00037613
2	0	0	1	0	52.3165	-1.33136	-1.3317	-0.367005	3	-0.00265739	39	4.889	0.00048874
2	0	0	1	0	52.4165	-1.34136	-1.34169	-0.485503	3	-0.00269962	39	4.989	0.000651392
2	0	0	0	1	52.5036	-1.35001	-1.35037	-0.59655	3	-0.00274682	39	5.0761	0.000805562
2	0	0	1	1	52.5991	-1.34046	-1.34078	-0.498135	3	-0.00279948	39	5.1716	0.000667888
2	0	0	1	1	52.6991	-1.33046	-1.33079	-0.40178	3	-0.00284429	39	5.2716	0.000534683
2	0	0	1	1	52.7989	-1.32047	-1.32078	-0.323163	3	-0.00288017	39	5.3714	0.000426826
2	0	0	1	1	52.8989	-1.31047	-1.3108	-0.256845	3	-0.00290879	39	5.4714	0.000336672
2	0	0	1	1	52.9989	-1.30047	-1.30078	-0.206117	3	-0.00293169	39	5.5714	0.000268113
2	0	0	1	1	53.0989	-1.29047	-1.29078	-0.165639	3	-0.00294999	39	5.6714	0.000213804
2	0	0	1	1	53.1989	-1.28047	-1.2808	-0.136191	3	-0.00296487	39	5.7714	0.000174434
2	0	0	1	1	53.2989	-1.27047	-1.27081	-0.112348	3	-0.0029771	39	5.8714	0.000142773
2	0	0	1	1	53.3989	-1.26048	-1.2608	-0.0953639	3	-0.00298727	39	5.9714	0.000120235
2	0	0	1	1	53.4989	-1.25048	-1.25083	-0.0800464	3	-0.00299584	39	6.0714	0.000100125
2	0	0	1	1	53.5989	-1.24048	-1.24083	-0.0684569	3	-0.00300308	39	6.1714	8.49432e-05
2	0	0	1	1	53.6989	-1.23048	-1.23082	-0.0583156	3	-0.00300921	39	6.2714	7.17757e-05
2	0	0	1	1	53.7989	-1.22048	-1.2208	-0.0500559	3	-0.00301446	39	6.3714	6.11082e-05
2	0	0	1	1	53.8989	-1.21049	-1.21081	-0.0435456	3	-0.00301894	39	6.4714	5.27253e-05
2	0	0	1	1	53.9987	-1.20049	-1.20081	-0.0375434	3	-0.00302282	39	6.5712	4.50826e-05
2	0	0	1	1	54.0987	-1.19049	-1.19083	-0.0319282	3	-0.00302614	39	6.6712	3.80211e-05
2	0	0	1	1	54.1987	-1.18049	-1.18082	-0.0270833	3	-0.00302893	39	6.7712	3.19805e-05
2	0	0	1	1	54.2987	-1.17049	-1.17082	-0.0226601	3	-0.00303125	39	6.8712	2.65309e-05
2	0	0	1	1	54.3987	-1.16049	-1.16082	-0.0183658	3	-0.00303313	39	6.9712	2.13194e-05
2	0	0	1	1	54.4987	-1.1505	-1.15084	-0.0144112	3	-0.0030346	39	7.0712	1.6585e-05
2	0	0	1	1	54.5987	-1.1405	-1.14084	-0.0104664	3	-0.00303568	39	7.1712	1.19405e-05
2	0	0	1	1	54.6987	-1.1305	-1.13083	-0.00687248	3	-0.00303639	39	7.2712	7.77163e-06
2	0	0	1	1	54.7987	-1.1205	-1.12083	-0.00358259	3	-0.00303675	39	7.3712	4.01547e-06
2	1	0	1	1	54.8987	-1.1105	-1.11083	-0.000555776	3	-0.0030368	39	0.02	6.1737e-07
2	1	0	1	1	54.9987	-1.1005	-1.10082	0.0022574	3	-0.00303655	39	0.12	-2.485e-06
2	1	0	1	1	55.0985	-1.09051	-1.09082	0.00489456	3	-0.00303603	39	0.2198	-5.3391e-06
2	1	0	1	1	55.1985	-1.08051	-1.08083	0.00737683	3	-0.00303525	39	0.3198	-7.97312e-06
2	1	0	1	1	55.2985	-1.07051	-1.07083	0.0100296	3	-0.0030342	39	0.4198	-1.07401e-05
2	1	0	1	1	55.3985	-1.06051	-1.06083	0.0128255	3	-0.00303292	39	0.5198	-1.36057e-05
2	1	0	1	1	55.4985	-1.05051	-1.05086	0.0153385	3	-0.00303136	39	0.6198	-1.61186e-05
2	1	0	1	1	55.5985	-1.04052	-1.04086	0.0186417	3	-0.00302948	39	0.7198	-1.94035e-05
2	1	0	1	1	55.6985	-1.03052	-1.03085	0.0224266	3	-0.00302726	39	0.8198	-2.31184e-05
2	1	0	1	1	55.7985	-1.02052	-1.02084	0.025716	3	-0.00302468	39	0.9198	-2.62521e-05
2	1	0	1	1	55.8985	-1.01052	-1.01085	0.0273773	3	-0.00302184	39	1.0198	-2.76743e-05
2	1	0	1	1	55.9985	-1.00052	-1.00085	0.028431	3	-0.00301888	39	1.1198	-2.8455e-05
2	1	0	1	1	56.0985	-0.990524	-0.99085	0.0304762	3	-0.00301577	39	1.2198	-3.01973e-05
2	1	0	1	1	56.1984	-0.980521	-0.980856	0.0336934	3	-0.00301242	39	1.3197	-3.30484e-05
2	1	0	1	1	56.2983	-0.970528	-0.970879	0.0384761	3	-0.00300866	39	1.4196	-3.73557e-05
2	1	0	1	1	56.3983	-0.96053	-0.960868	0.0445654	3	-0.00300436	39	1.5196	-4.28215e-05
2	1	0	1	1	56.4983	-0.950531	-0.950861	0.0517607	3	-0.00299941	39	1.6196	-4.92172e-05
2	1	0	1	1	56.5983	-0.940533	-0.940872	0.0606648	3	-0.00299364	39	1.7196	-5.70778e-05
2	1	0	1	1	56.6983	-0.930535	-0.930892	0.0704436	3	-0.00298692	39	1.8196	-6.55754e-05
2	1	0	1	1	56.7983	-0.920536	-0.920898	0.080817	3	-0.00297919	39	1.9196	-7.44242e-05
2	1	0	1	1	56.8983	-0.910538	-0.910869	0.0915172	3	-0.00297041	39	2.0196	-8.33602e-05
2	1	0	1	1	56.9983	-0.90054	-0.900892	0.101788	3	-0.00296059	39	2.1196	-9.16999e-05
2	1	0	1	1	57.0983	-0.890542	-0.890887	0.112223	3	-0.00294974	39	2.2196	-9.99779e-05
2	1	0	1	1	57.1983	-0.880544	-0.880874	0.12222	3	-0.00293787	39	2.3196	-0.000107661
2	1	0	1	1	57.2983	-0.870545	-0.870874	0.131418	3	-0.00292503	39	2.4196	-0.000114449
2	1	0	1	1	57.3981	-0.860547	-0.860884	0.139958	3	-0.00291132	39	2.5194	-0.000120488
2	1	0	1	1	57.4981	-0.850549	-0.850889	0.146883	3	-0.00289681	39	2.6194	-0.000124982
2	1	0	1	1	57.5981	-0.840551	-0.840885	0.152323	3	-0.00288168	39	2.7194	-0.000128086
2	1	0	1	1	57.6981	-0.830552	-0.830893	0.15575	3	-0.00286611	39	2.8194	-0.000129411
2	1	0	1	1	57.7981	-0.820554	-0.820897	0.157063	3	-0.00285031	39	2.9194	-0.000128933
2	1	0	1	1	57.8981	-0.810556	-0.810887	0.155803	3	-0.00283452	39	3.0194	-0.000126338
2	1	0	1	1	57.9981	-0.800558	-0.800898	0.152702	3	-0.00281894	39	3.1194	-0.000122299
2	1	0	1	1	58.0981	-0.790559	-0.790897	0.148025	3	-0.00280376	39	3.2194	-0.000117072
2	1	0	1	1	58.1981	-0.780561	-0.780929	0.142526	3	-0.00278909	39	3.3194	-0.000111302
2	1	0	1	1	58.2981	-0.770563	-0.770905	0.137187	3	-0.00277497	39	3.4194	-0.000105758
2	1	0	1	1	58.3981	-0.760565	-0.760905	0.130921	3	-0.00276144	39	3.5194	-9.96185e-05
2	1	0	1	1	58.4979	-0.750566	-0.750904	0.124903	3	-0.00274852	39	3.6192	-9.37903e-05
2	1	0	1	1	58.5979	-0.740568	-0.740921	0.119701	3	-0.00273614	39	3.7192	-8.86891e-05
2	1	0	1	1	58.6979	-0.73057	-0.730924	0.115015	3	-0.00272427	39	3.8192	-8.4067e-05
2	1	0	1	1	58.7979	-0.720572	-0.720925	0.110421	3	-0.00271285	39	3.9192	-7.96052e-05
2	1	0	1	1	58.8979	-0.710573	-0.710929	0.106376	3	-0.00270187	39	4.0192	-7.56256e-05
2	1	0	1	1	58.9979	-0.700575	-0.700946	0.102611	3	-0.00269128	39	4.1192	-7.1925e-05
2	1	0	1	1	59.0979	-0.690577	-0.690929	0.0990621	3	-0.00268106	39	4.2192	-6.84448e-05
2	1	0	1	1	59.1979	-0.680579	-0.680955	0.0957192	3	-0.00267117	39	4.3192	-6.51805e-05
2	1	0	1	1	59.2979	-0.670581	-0.670932	0.0928914	3	-0.00266159	39	4.4192	-6.23237e-05
2	1	0	1	1	59.3878	-0.661532	-0.661873	0.0932987	3	-0.00265322	39	4.5091	-6.17519e-05