File: Fig 3/Fig 3_RRDE-np-Fe2O3_25mvs_disk.mpt
mode	ox/red	error	control changes	Ns changes	counter inc.	Ns	time/s	control/V	Ewe/V	<I>/mA	dQ/C	(Q-Qo)/C	I Range	Q charge/discharge/mA.h	half cycle	Energy charge/W.h	Energy discharge/W.h	Capacitance charge/µF	Capacitance discharge/µF	step time/s	Q discharge/mA.h	Q charge/mA.h	Capacity/mA.h	Efficiency/%	cycle number	P/W
2	0	1	1	0	0	0	0.1	-0.300004	-0.30011	-0.132079	-1.32079e-05	-1.32079e-05	41	-3.66885e-06	0	0.000000000000000E+000	1.10106e-09	0.000000000000000E+000	0.000000000000000E+000	0.1	3.66885e-06	0.000000000000000E+000	3.66885e-06	0.0000000E+000	0.000000000000000E+000	3.96381e-05
2	0	0	1	0	0	0	0.6	-0.300004	-0.30016	-0.0188725	-2.55518e-05	-2.55518e-05	41	-7.09772e-06	0	0.000000000000000E+000	2.13022e-09	0.000000000000000E+000	514014	0.6	7.09772e-06	0.000000000000000E+000	7.09772e-06	0.0000000E+000	0.000000000000000E+000	5.66477e-06
2	0	0	1	0	0	0	1.1	-0.300004	-0.300152	-0.015064	-3.37347e-05	-3.37347e-05	41	-9.37074e-06	0	0.000000000000000E+000	2.81248e-09	0.000000000000000E+000	802231	1.1	9.37074e-06	0.000000000000000E+000	9.37074e-06	0.0000000E+000	0.000000000000000E+000	4.5215e-06
2	0	0	1	0	0	0	1.6	-0.300004	-0.300148	-0.0125761	-4.0497e-05	-4.0497e-05	41	-1.12492e-05	0	0.000000000000000E+000	3.37628e-09	0.000000000000000E+000	1.05912e+06	1.6	1.12492e-05	0.000000000000000E+000	1.12492e-05	0.0000000E+000	0.000000000000000E+000	3.77468e-06
2	0	0	1	0	0	0	2.1	-0.300004	-0.300171	-0.0109328	-4.63677e-05	-4.63677e-05	41	-1.28799e-05	0	0.000000000000000E+000	3.86574e-09	0.000000000000000E+000	757838	2.1	1.28799e-05	0.000000000000000E+000	1.28799e-05	0.0000000E+000	0.000000000000000E+000	3.2817e-06
2	0	0	1	0	0	0	2.6	-0.300004	-0.300152	-0.0100787	-5.16181e-05	-5.16181e-05	41	-1.43384e-05	0	0.000000000000000E+000	4.30352e-09	0.000000000000000E+000	1.22751e+06	2.6	1.43384e-05	0.000000000000000E+000	1.43384e-05	0.0000000E+000	0.000000000000000E+000	3.02513e-06
2	0	0	1	0	0	0	3.1	-0.300004	-0.300144	-0.00931829	-5.64476e-05	-5.64476e-05	41	-1.56799e-05	0	0.000000000000000E+000	4.70615e-09	0.000000000000000E+000	1.63988e+06	3.1	1.56799e-05	0.000000000000000E+000	1.56799e-05	0.0000000E+000	0.000000000000000E+000	2.79683e-06
2	0	0	1	0	0	0	3.6	-0.300004	-0.300133	-0.00845214	-6.07855e-05	-6.07855e-05	41	-1.68849e-05	0	0.000000000000000E+000	5.0678e-09	0.000000000000000E+000	2.64886e+06	3.6	1.68849e-05	0.000000000000000E+000	1.68849e-05	0.0000000E+000	0.000000000000000E+000	2.53677e-06
2	0	0	1	0	0	0	4.1	-0.300004	-0.300091	-0.00799241	-6.49212e-05	-6.49212e-05	41	-1.80337e-05	0	0.000000000000000E+000	5.41259e-09	0.000000000000000E+000	3.39843e+06	4.1	1.80337e-05	0.000000000000000E+000	1.80337e-05	0.0000000E+000	0.000000000000000E+000	2.39845e-06
2	0	0	1	0	0	0	4.6	-0.300004	-0.300129	-0.00752712	-6.8774e-05	-6.8774e-05	41	-1.91039e-05	0	0.000000000000000E+000	5.73379e-09	0.000000000000000E+000	3.59451e+06	4.6	1.91039e-05	0.000000000000000E+000	1.91039e-05	0.0000000E+000	0.000000000000000E+000	2.25911e-06
2	0	0	1	0	0	0	5.1	-0.300004	-0.30016	-0.00711045	-7.24326e-05	-7.24326e-05	41	-2.01202e-05	0	0.000000000000000E+000	6.03881e-09	0.000000000000000E+000	1.4571e+06	5.1	2.01202e-05	0.000000000000000E+000	2.01202e-05	0.0000000E+000	0.000000000000000E+000	2.13427e-06
2	0	0	1	0	0	0	5.6	-0.300004	-0.300137	-0.00671015	-7.58594e-05	-7.58594e-05	41	-2.1072e-05	0	0.000000000000000E+000	6.32451e-09	0.000000000000000E+000	2.83454e+06	5.6	2.1072e-05	0.000000000000000E+000	2.1072e-05	0.0000000E+000	0.000000000000000E+000	2.01396e-06
2	0	0	1	0	0	0	6.1	-0.300004	-0.300175	-0.00636686	-7.91118e-05	-7.91118e-05	41	-2.19755e-05	0	0.000000000000000E+000	6.59566e-09	0.000000000000000E+000	1.21713e+06	6.1	2.19755e-05	0.000000000000000E+000	2.19755e-05	0.0000000E+000	0.000000000000000E+000	1.91117e-06
2	0	0	1	0	0	0	6.6	-0.300004	-0.300164	-0.00611577	-8.22271e-05	-8.22271e-05	41	-2.28409e-05	0	0.000000000000000E+000	6.85539e-09	0.000000000000000E+000	1.53624e+06	6.6	2.28409e-05	0.000000000000000E+000	2.28409e-05	0.0000000E+000	0.000000000000000E+000	1.83573e-06
2	0	0	1	0	0	0	7.1	-0.300004	-0.300144	-0.00582079	-8.5196e-05	-8.5196e-05	41	-2.36655e-05	0	0.000000000000000E+000	7.10291e-09	0.000000000000000E+000	2.47507e+06	7.1	2.36655e-05	0.000000000000000E+000	2.36655e-05	0.0000000E+000	0.000000000000000E+000	1.74708e-06
2	0	0	1	0	0	0	7.6	-0.300004	-0.300133	-0.00558615	-8.80329e-05	-8.80329e-05	41	-2.44536e-05	0	0.000000000000000E+000	7.33943e-09	0.000000000000000E+000	3.83623e+06	7.6	2.44536e-05	0.000000000000000E+000	2.44536e-05	0.0000000E+000	0.000000000000000E+000	1.67659e-06
2	0	0	1	0	0	0	8.1	-0.300004	-0.300164	-0.00549352	-9.08311e-05	-9.08311e-05	41	-2.52309e-05	0	0.000000000000000E+000	7.57273e-09	0.000000000000000E+000	1.69699e+06	8.1	2.52309e-05	0.000000000000000E+000	2.52309e-05	0.0000000E+000	0.000000000000000E+000	1.64895e-06
2	0	0	1	0	0	0	8.6	-0.300004	-0.300121	-0.00527741	-9.35195e-05	-9.35195e-05	41	-2.59776e-05	0	0.000000000000000E+000	7.79686e-09	0.000000000000000E+000	8.15063e+06	8.6	2.59776e-05	0.000000000000000E+000	2.59776e-05	0.0000000E+000	0.000000000000000E+000	1.58386e-06
2	0	0	1	0	0	0	9.1	-0.300004	-0.300091	-0.0052014	-9.6136e-05	-9.6136e-05	41	-2.67044e-05	0	0.000000000000000E+000	8.01498e-09	0.000000000000000E+000	5.03243e+06	9.1	2.67044e-05	0.000000000000000E+000	2.67044e-05	0.0000000E+000	0.000000000000000E+000	1.56089e-06
2	0	0	1	0	0	0	9.6	-0.300004	-0.300099	-0.00501549	-9.86834e-05	-9.86834e-05	41	-2.74121e-05	0	0.000000000000000E+000	8.22735e-09	0.000000000000000E+000	8.60069e+06	9.6	2.74121e-05	0.000000000000000E+000	2.74121e-05	0.0000000E+000	0.000000000000000E+000	1.50514e-06
2	0	0	1	0	0	0	10.1	-0.300004	-0.300129	-0.00501111	-0.000101202	-0.000101202	41	-2.81116e-05	0	0.000000000000000E+000	8.43732e-09	0.000000000000000E+000	5.29762e+06	10.1	2.81116e-05	0.000000000000000E+000	2.81116e-05	0.0000000E+000	0.000000000000000E+000	1.50398e-06
2	0	0	1	0	0	0	10.6	-0.300004	-0.300114	-0.00486758	-0.000103656	-0.000103656	41	-2.87934e-05	0	0.000000000000000E+000	8.64195e-09	0.000000000000000E+000	2.69623e+07	10.6	2.87934e-05	0.000000000000000E+000	2.87934e-05	0.0000000E+000	0.000000000000000E+000	1.46083e-06
2	0	0	1	0	0	0	11.1	-0.300004	-0.300129	-0.00474504	-0.000106063	-0.000106063	41	-2.94621e-05	0	0.000000000000000E+000	8.84262e-09	0.000000000000000E+000	5.54346e+06	11.1	2.94621e-05	0.000000000000000E+000	2.94621e-05	0.0000000E+000	0.000000000000000E+000	1.42413e-06
2	0	0	1	0	0	0	11.6	-0.300004	-0.300144	-0.00477353	-0.000108451	-0.000108451	41	-3.01253e-05	0	0.000000000000000E+000	9.04167e-09	0.000000000000000E+000	3.15339e+06	11.6	3.01253e-05	0.000000000000000E+000	3.01253e-05	0.0000000E+000	0.000000000000000E+000	1.43275e-06
2	0	0	1	0	0	0	12.1	-0.300004	-0.300118	-0.00468277	-0.000110806	-0.000110806	41	-3.07795e-05	0	0.000000000000000E+000	9.23799e-09	0.000000000000000E+000	1.44671e+07	12.1	3.07795e-05	0.000000000000000E+000	3.07795e-05	0.0000000E+000	0.000000000000000E+000	1.40538e-06
2	0	0	1	0	0	0	12.6	-0.300004	-0.300133	-0.0046337	-0.000113114	-0.000113114	41	-3.14206e-05	0	0.000000000000000E+000	9.43042e-09	0.000000000000000E+000	4.9292e+06	12.6	3.14206e-05	0.000000000000000E+000	3.14206e-05	0.0000000E+000	0.000000000000000E+000	1.39073e-06
2	0	0	1	0	0	0	13.1	-0.300004	-0.300144	-0.00452864	-0.000115399	-0.000115399	41	-3.20552e-05	0	0.000000000000000E+000	9.62087e-09	0.000000000000000E+000	3.3525e+06	13.1	3.20552e-05	0.000000000000000E+000	3.20552e-05	0.0000000E+000	0.000000000000000E+000	1.35925e-06
2	0	0	1	0	0	0	13.6	-0.300004	-0.300133	-0.00452057	-0.000117658	-0.000117658	41	-3.26827e-05	0	0.000000000000000E+000	9.80921e-09	0.000000000000000E+000	5.12719e+06	13.6	3.26827e-05	0.000000000000000E+000	3.26827e-05	0.0000000E+000	0.000000000000000E+000	1.35677e-06
2	0	0	1	0	0	0	14.1	-0.300004	-0.300072	-0.00442581	-0.000119881	-0.000119881	41	-3.33001e-05	0	0.000000000000000E+000	9.99454e-09	0.000000000000000E+000	3.13525e+06	14.1	3.33001e-05	0.000000000000000E+000	3.33001e-05	0.0000000E+000	0.000000000000000E+000	1.32806e-06
2	0	0	1	0	0	0	14.6	-0.300004	-0.300114	-0.00435257	-0.000122064	-0.000122064	41	-3.39066e-05	0	0.000000000000000E+000	1.01765e-08	0.000000000000000E+000	3.19982e+07	14.6	3.39066e-05	0.000000000000000E+000	3.39066e-05	0.0000000E+000	0.000000000000000E+000	1.30627e-06
2	0	0	1	0	0	0	15.1	-0.300004	-0.300121	-0.00431546	-0.000124238	-0.000124238	41	-3.45105e-05	0	0.000000000000000E+000	1.03578e-08	0.000000000000000E+000	1.08279e+07	15.1	3.45105e-05	0.000000000000000E+000	3.45105e-05	0.0000000E+000	0.000000000000000E+000	1.29516e-06
2	0	0	1	0	0	0	15.6	-0.300004	-0.300179	-0.00426557	-0.000126394	-0.000126394	41	-3.51094e-05	0	0.000000000000000E+000	1.05375e-08	0.000000000000000E+000	1.83676e+06	15.6	3.51094e-05	0.000000000000000E+000	3.51094e-05	0.0000000E+000	0.000000000000000E+000	1.28043e-06
2	0	0	1	0	0	0	16.1	-0.300004	-0.300125	-0.00423296	-0.000128531	-0.000128531	41	-3.5703e-05	0	0.000000000000000E+000	1.07157e-08	0.000000000000000E+000	8.39062e+06	16.1	3.5703e-05	0.000000000000000E+000	3.5703e-05	0.0000000E+000	0.000000000000000E+000	1.27042e-06
2	0	0	1	0	0	0	16.6	-0.300004	-0.300114	-0.0042323	-0.000130648	-0.000130648	41	-3.62911e-05	0	0.000000000000000E+000	1.08922e-08	0.000000000000000E+000	3.39831e+07	16.6	3.62911e-05	0.000000000000000E+000	3.62911e-05	0.0000000E+000	0.000000000000000E+000	1.27017e-06
2	0	0	1	0	0	0	17.1	-0.300004	-0.300175	-0.00420472	-0.000132769	-0.000132769	41	-3.68802e-05	0	0.000000000000000E+000	1.1069e-08	0.000000000000000E+000	2.04263e+06	17.1	3.68802e-05	0.000000000000000E+000	3.68802e-05	0.0000000E+000	0.000000000000000E+000	1.26215e-06
2	0	0	1	0	0	0	17.6	-0.300004	-0.30016	-0.0041824	-0.000134855	-0.000134855	41	-3.74598e-05	0	0.000000000000000E+000	1.1243e-08	0.000000000000000E+000	2.71283e+06	17.6	3.74598e-05	0.000000000000000E+000	3.74598e-05	0.0000000E+000	0.000000000000000E+000	1.25539e-06
2	0	0	1	0	0	0	18.1	-0.300004	-0.300148	-0.0041264	-0.000136935	-0.000136935	41	-3.80375e-05	0	0.000000000000000E+000	1.14164e-08	0.000000000000000E+000	3.58128e+06	18.1	3.80375e-05	0.000000000000000E+000	3.80375e-05	0.0000000E+000	0.000000000000000E+000	1.23853e-06
2	0	0	1	0	0	0	18.6	-0.300004	-0.300121	-0.00414525	-0.000139009	-0.000139009	41	-3.86136e-05	0	0.000000000000000E+000	1.15893e-08	0.000000000000000E+000	1.21152e+07	18.6	3.86136e-05	0.000000000000000E+000	3.86136e-05	0.0000000E+000	0.000000000000000E+000	1.24408e-06
2	0	0	1	0	0	0	19.1	-0.300004	-0.300076	-0.0040972	-0.000141063	-0.000141063	41	-3.91841e-05	0	0.000000000000000E+000	1.17605e-08	0.000000000000000E+000	4.10163e+06	19.1	3.91841e-05	0.000000000000000E+000	3.91841e-05	0.0000000E+000	0.000000000000000E+000	1.22947e-06
2	0	0	1	0	0	0	19.6	-0.300004	-0.300137	-0.0040677	-0.0001431	-0.0001431	41	-3.97501e-05	0	0.000000000000000E+000	1.19304e-08	0.000000000000000E+000	5.34705e+06	19.6	3.97501e-05	0.000000000000000E+000	3.97501e-05	0.0000000E+000	0.000000000000000E+000	1.22087e-06
2	0	0	1	0	0	0	20.1	-0.300004	-0.30011	-0.00408689	-0.000145156	-0.000145156	41	-4.0321e-05	0	0.000000000000000E+000	1.21017e-08	0.000000000000000E+000	0.000000000000000E+000	20.1	4.0321e-05	0.000000000000000E+000	4.0321e-05	0.0000000E+000	0.000000000000000E+000	1.22652e-06
2	0	0	1	0	0	0	20.6	-0.300004	-0.300118	-0.00405251	-0.000147177	-0.000147177	41	-4.08825e-05	0	0.000000000000000E+000	1.22702e-08	0.000000000000000E+000	1.92157e+07	20.6	4.08825e-05	0.000000000000000E+000	4.08825e-05	0.0000000E+000	0.000000000000000E+000	1.21623e-06
2	0	0	1	0	0	0	21.1	-0.300004	-0.300095	-0.00410495	-0.0001492	-0.0001492	41	-4.14445e-05	0	0.000000000000000E+000	1.24389e-08	0.000000000000000E+000	9.75893e+06	21.1	4.14445e-05	0.000000000000000E+000	4.14445e-05	0.0000000E+000	0.000000000000000E+000	1.23187e-06
2	0	0	1	0	0	0	21.6	-0.300004	-0.30011	-0.00402923	-0.000151215	-0.000151215	41	-4.2004e-05	0	0.000000000000000E+000	1.26068e-08	0.000000000000000E+000	0.000000000000000E+000	21.6	4.2004e-05	0.000000000000000E+000	4.2004e-05	0.0000000E+000	0.000000000000000E+000	1.20921e-06
2	0	0	1	0	0	0	22.1	-0.300004	-0.300114	-0.00398743	-0.000153209	-0.000153209	41	-4.25581e-05	0	0.000000000000000E+000	1.27731e-08	0.000000000000000E+000	4.01629e+07	22.1	4.25581e-05	0.000000000000000E+000	4.25581e-05	0.0000000E+000	0.000000000000000E+000	1.19668e-06
2	0	0	1	0	0	0	22.6	-0.300004	-0.300083	-0.00396907	-0.000155201	-0.000155201	41	-4.31113e-05	0	0.000000000000000E+000	1.29391e-08	0.000000000000000E+000	5.79919e+06	22.6	4.31113e-05	0.000000000000000E+000	4.31113e-05	0.0000000E+000	0.000000000000000E+000	1.19105e-06
2	0	0	1	0	0	0	23.1	-0.300004	-0.300133	-0.00392745	-0.000157168	-0.000157168	41	-4.36577e-05	0	0.000000000000000E+000	1.31031e-08	0.000000000000000E+000	6.84893e+06	23.1	4.36577e-05	0.000000000000000E+000	4.36577e-05	0.0000000E+000	0.000000000000000E+000	1.17876e-06
2	0	0	1	0	0	0	23.6	-0.300004	-0.300099	-0.00386548	-0.000159133	-0.000159133	41	-4.42036e-05	0	0.000000000000000E+000	1.32669e-08	0.000000000000000E+000	1.38691e+07	23.6	4.42036e-05	0.000000000000000E+000	4.42036e-05	0.0000000E+000	0.000000000000000E+000	1.16002e-06
2	0	0	1	0	0	0	24.1	-0.300004	-0.30016	-0.00383402	-0.000161064	-0.000161064	41	-4.47401e-05	0	0.000000000000000E+000	1.34279e-08	0.000000000000000E+000	3.24006e+06	24.1	4.47401e-05	0.000000000000000E+000	4.47401e-05	0.0000000E+000	0.000000000000000E+000	1.15082e-06
2	0	0	1	0	0	0	24.6	-0.300004	-0.300125	-0.00379495	-0.000162972	-0.000162972	41	-4.52699e-05	0	0.000000000000000E+000	1.35869e-08	0.000000000000000E+000	1.06389e+07	24.6	4.52699e-05	0.000000000000000E+000	4.52699e-05	0.0000000E+000	0.000000000000000E+000	1.13896e-06
2	0	0	1	0	0	0	25.1	-0.300004	-0.300095	-0.00350697	-0.000164777	-0.000164777	41	-4.57714e-05	0	0.000000000000000E+000	1.37375e-08	0.000000000000000E+000	1.07778e+07	25.1	4.57714e-05	0.000000000000000E+000	4.57714e-05	0.0000000E+000	0.000000000000000E+000	1.05242e-06
2	0	0	1	0	0	0	25.6	-0.300004	-0.300095	-0.00324713	-0.000166459	-0.000166459	41	-4.62387e-05	0	0.000000000000000E+000	1.38777e-08	0.000000000000000E+000	1.08878e+07	25.6	4.62387e-05	0.000000000000000E+000	4.62387e-05	0.0000000E+000	0.000000000000000E+000	9.74445e-07
2	0	0	1	0	0	0	26.1	-0.300004	-0.300148	-0.00275155	-0.000167959	-0.000167959	41	-4.66554e-05	0	0.000000000000000E+000	1.40028e-08	0.000000000000000E+000	4.39266e+06	26.1	4.66554e-05	0.000000000000000E+000	4.66554e-05	0.0000000E+000	0.000000000000000E+000	8.25874e-07
2	0	0	1	0	0	0	26.6	-0.300004	-0.300106	-0.00171675	-0.000169056	-0.000169056	41	-4.696e-05	0	0.000000000000000E+000	1.40942e-08	0.000000000000000E+000	4.4317e+07	26.6	4.696e-05	0.000000000000000E+000	4.696e-05	0.0000000E+000	0.000000000000000E+000	5.15207e-07
2	1	0	1	0	0	0	27.1	-0.300004	-0.300102	0.000128191	-0.000169395	-0.000169395	41	3.56086e-09	2	1.06872e-12	0.000000000000000E+000	0.000000000000000E+000	0.000000000000000E+000	0.000000000000000E+000	0.000000000000000E+000	3.56086e-09	3.56086e-09	0.0000000E+000	1	-3.84704e-08
2	1	0	1	0	0	0	27.6	-0.300004	-0.300121	0.00283118	-0.000168539	-0.000168539	41	2.41361e-07	2	7.2437e-11	0.000000000000000E+000	45484.3	0.000000000000000E+000	0.5	0.000000000000000E+000	2.41361e-07	2.41361e-07	0.0000000E+000	1	-8.49699e-07
2	1	0	1	0	0	0	28.1	-0.300004	-0.300095	0.00664445	-0.000166013	-0.000166013	41	9.43129e-07	2	2.83049e-10	0.000000000000000E+000	443293	0.000000000000000E+000	1	0.000000000000000E+000	9.43129e-07	9.43129e-07	0.0000000E+000	1	-1.99396e-06
2	1	0	1	0	0	0	28.6	-0.300004	-0.30016	0.011406	-0.000161245	-0.000161245	41	2.2676e-06	2	6.80551e-10	0.000000000000000E+000	142369	0.000000000000000E+000	1.5	0.000000000000000E+000	2.2676e-06	2.2676e-06	0.0000000E+000	1	-3.42361e-06
2	1	0	1	0	0	0	29.1	-0.300004	-0.300118	0.0159518	-0.000154145	-0.000154145	41	4.23985e-06	2	1.27245e-09	0.000000000000000E+000	998356	0.000000000000000E+000	2	0.000000000000000E+000	4.23985e-06	4.23985e-06	0.0000000E+000	1	-4.78741e-06
2	1	0	1	0	0	0	29.6	-0.300004	-0.300121	0.0195651	-0.00014506	-0.00014506	41	6.76334e-06	2	2.02979e-09	0.000000000000000E+000	1.27455e+06	0.000000000000000E+000	2.5	0.000000000000000E+000	6.76334e-06	6.76334e-06	0.0000000E+000	1	-5.8719e-06
2	1	0	1	0	0	0	30.1	-0.300004	-0.300133	0.0218422	-0.000134602	-0.000134602	41	9.66828e-06	2	2.90157e-09	0.000000000000000E+000	1.13829e+06	0.000000000000000E+000	3	0.000000000000000E+000	9.66828e-06	9.66828e-06	0.0000000E+000	1	-6.55556e-06
2	1	0	1	0	0	0	30.6	-0.300004	-0.300064	0.023039	-0.000123334	-0.000123334	41	1.27984e-05	2	3.84096e-09	0.000000000000000E+000	1.20499e+06	0.000000000000000E+000	3.5	0.000000000000000E+000	1.27984e-05	1.27984e-05	0.0000000E+000	1	-6.91318e-06
2	1	0	1	0	0	0	31.1	-0.300004	-0.300118	0.0238757	-0.000111567	-0.000111567	41	1.6067e-05	2	4.82183e-09	0.000000000000000E+000	3.78328e+06	0.000000000000000E+000	4	0.000000000000000E+000	1.6067e-05	1.6067e-05	0.0000000E+000	1	-7.16553e-06
2	1	0	1	0	0	0	31.6	-0.300004	-0.300099	0.0243464	-9.95551e-05	-9.95551e-05	41	1.94036e-05	2	5.82318e-09	0.000000000000000E+000	1.81696e+07	0.000000000000000E+000	4.5	0.000000000000000E+000	1.94036e-05	1.94036e-05	0.0000000E+000	1	-7.30633e-06
2	1	0	1	0	0	0	32.1	-0.300004	-0.300114	0.0248506	-8.71422e-05	-8.71422e-05	41	2.28516e-05	2	6.85793e-09	0.000000000000000E+000	7.16983e+06	0.000000000000000E+000	5	0.000000000000000E+000	2.28516e-05	2.28516e-05	0.0000000E+000	1	-7.45801e-06
2	1	0	1	0	0	0	32.6	-0.300004	-0.300087	0.0249525	-7.47935e-05	-7.47935e-05	41	2.62818e-05	2	7.88745e-09	0.000000000000000E+000	6.17653e+06	0.000000000000000E+000	5.5	0.000000000000000E+000	2.62818e-05	2.62818e-05	0.0000000E+000	1	-7.48792e-06
2	1	0	1	0	0	0	33.1	-0.300004	-0.300083	0.0244261	-6.24486e-05	-6.24486e-05	41	2.97109e-05	2	8.91654e-09	0.000000000000000E+000	5.59028e+06	0.000000000000000E+000	6	0.000000000000000E+000	2.97109e-05	2.97109e-05	0.0000000E+000	1	-7.32985e-06
2	1	0	1	0	0	0	33.6	-0.300004	-0.300179	0.0242751	-5.02934e-05	-5.02934e-05	41	3.30874e-05	2	9.92986e-09	0.000000000000000E+000	1.55822e+06	0.000000000000000E+000	6.5	0.000000000000000E+000	3.30874e-05	3.30874e-05	0.0000000E+000	1	-7.28687e-06
2	1	0	1	0	0	0	34.1	-0.300004	-0.300102	0.0239029	-3.8259e-05	-3.8259e-05	41	3.64303e-05	2	1.09331e-08	0.000000000000000E+000	0.000000000000000E+000	0.000000000000000E+000	7	0.000000000000000E+000	3.64303e-05	3.64303e-05	0.0000000E+000	1	-7.17333e-06
2	1	0	1	0	0	0	34.6	-0.300004	-0.300152	0.0242363	-2.62395e-05	-2.62395e-05	41	3.9769e-05	2	1.19351e-08	0.000000000000000E+000	2.88179e+06	0.000000000000000E+000	7.5	0.000000000000000E+000	3.9769e-05	3.9769e-05	0.0000000E+000	1	-7.27458e-06
2	1	0	1	0	0	0	35.1	-0.300004	-0.300118	0.0201751	-1.48899e-05	-1.48899e-05	41	4.29217e-05	2	1.28812e-08	0.000000000000000E+000	1.01068e+07	0.000000000000000E+000	8	0.000000000000000E+000	4.29217e-05	4.29217e-05	0.0000000E+000	1	-6.0549e-06
2	1	0	1	0	0	0	35.6	-0.300004	-0.300083	0.0103398	-7.86726e-06	-7.86726e-06	41	4.48724e-05	2	1.34667e-08	0.000000000000000E+000	8.443e+06	0.000000000000000E+000	8.5	0.000000000000000E+000	4.48724e-05	4.48724e-05	0.0000000E+000	1	-3.1028e-06
2	1	0	1	0	0	0	36.1	-0.300004	-0.300106	0.00437058	-4.64527e-06	-4.64527e-06	41	4.57674e-05	2	1.37353e-08	0.000000000000000E+000	4.31916e+07	0.000000000000000E+000	9	0.000000000000000E+000	4.57674e-05	4.57674e-05	0.0000000E+000	1	-1.31164e-06
2	1	0	1	0	0	0	36.6	-0.300004	-0.300133	0.001313	-3.44738e-06	-3.44738e-06	41	4.61002e-05	2	1.38351e-08	0.000000000000000E+000	5.4276e+06	0.000000000000000E+000	9.5	0.000000000000000E+000	4.61002e-05	4.61002e-05	0.0000000E+000	1	-3.94074e-07
2	0	0	1	0	0	0	37.1	-0.300004	-0.300114	-0.000257259	-3.29839e-06	-3.29839e-06	41	-7.39676e-09	3	1.38498e-08	2.21986e-12	2.41429e+06	1741.71	0.1	7.39676e-09	0.000000000000000E+000	7.39676e-09	0.0000000E+000	1	7.72068e-08
2	0	0	1	0	0	0	37.6	-0.300004	-0.300102	-0.0012151	-3.73514e-06	-3.73514e-06	41	-1.28716e-07	3	1.38498e-08	3.86306e-11	2.41429e+06	17333.8	0.6	1.28716e-07	0.000000000000000E+000	1.28716e-07	0.0000000E+000	1	3.64653e-07
2	0	0	1	0	0	0	38.1	-0.300004	-0.300121	-0.00176141	-4.51547e-06	-4.51547e-06	41	-3.45473e-07	3	1.38498e-08	1.03684e-10	2.41429e+06	163015	1.1	3.45473e-07	0.000000000000000E+000	3.45473e-07	0.0000000E+000	1	5.28636e-07
2	0	0	1	0	0	0	38.6	-0.300004	-0.300091	-0.00212043	-5.50813e-06	-5.50813e-06	41	-6.21214e-07	3	1.38498e-08	1.86439e-10	2.41429e+06	58533.6	1.6	6.21214e-07	0.000000000000000E+000	6.21214e-07	0.0000000E+000	1	6.36321e-07
2	0	0	1	0	0	0	39.1	-0.300004	-0.300121	-0.00236306	-6.64574e-06	-6.64574e-06	41	-9.37217e-07	3	1.38498e-08	2.81281e-10	2.41429e+06	442234	2.1	9.37217e-07	0.000000000000000E+000	9.37217e-07	0.0000000E+000	1	7.09204e-07
2	0	0	1	0	0	0	39.6	-0.300004	-0.300114	-0.00253009	-7.88261e-06	-7.88261e-06	41	-1.28079e-06	3	1.38498e-08	3.84396e-10	2.41429e+06	302176	2.6	1.28079e-06	0.000000000000000E+000	1.28079e-06	0.0000000E+000	1	7.59316e-07
2	0	0	1	0	0	0	40.1	-0.300004	-0.300114	-0.00254658	-9.15986e-06	-9.15986e-06	41	-1.63558e-06	3	1.38498e-08	4.90876e-10	2.41429e+06	385883	3.1	1.63558e-06	0.000000000000000E+000	1.63558e-06	0.0000000E+000	1	7.64265e-07
2	0	0	1	0	0	0	40.6	-0.300004	-0.300114	-0.00239295	-1.03907e-05	-1.03907e-05	41	-1.97747e-06	3	1.38498e-08	5.93484e-10	2.41429e+06	465634	3.6	1.97747e-06	0.000000000000000E+000	1.97747e-06	0.0000000E+000	1	7.18157e-07
2	0	0	1	0	0	0	41.1	-0.300004	-0.300133	-0.00207568	-1.1483e-05	-1.1483e-05	41	-2.28091e-06	3	1.38498e-08	6.84555e-10	2.41429e+06	2.13585e+06	4.1	2.28091e-06	0.000000000000000E+000	2.28091e-06	0.0000000E+000	1	6.2298e-07
2	0	0	1	0	0	0	41.6	-0.300004	-0.300164	-0.00209699	-1.25226e-05	-1.25226e-05	41	-2.56968e-06	3	1.38498e-08	7.71225e-10	2.41429e+06	268751	4.6	2.56968e-06	0.000000000000000E+000	2.56968e-06	0.0000000E+000	1	6.29439e-07
2	0	0	1	0	0	0	42.1	-0.300004	-0.300114	-0.00243355	-1.36347e-05	-1.36347e-05	41	-2.87859e-06	3	1.38498e-08	8.63941e-10	2.41429e+06	679145	5.1	2.87859e-06	0.000000000000000E+000	2.87859e-06	0.0000000E+000	1	7.30341e-07
2	0	0	1	0	0	0	42.6	-0.300004	-0.300121	-0.00287159	-1.49945e-05	-1.49945e-05	41	-3.25632e-06	3	1.38498e-08	9.77308e-10	2.41429e+06	1.53653e+06	5.6	3.25632e-06	0.000000000000000E+000	3.25632e-06	0.0000000E+000	1	8.61827e-07
2	0	0	1	0	0	0	43.1	-0.300004	-0.30016	-0.00308818	-1.64969e-05	-1.64969e-05	41	-3.67366e-06	3	1.38498e-08	1.10256e-09	2.41429e+06	432096	6.1	3.67366e-06	0.000000000000000E+000	3.67366e-06	0.0000000E+000	1	9.26947e-07
2	0	0	1	0	0	0	43.6	-0.300004	-0.30011	-0.00319496	-1.8066e-05	-1.8066e-05	41	-4.1095e-06	3	1.38498e-08	1.23337e-09	2.41429e+06	774433	6.6	4.1095e-06	0.000000000000000E+000	4.1095e-06	0.0000000E+000	1	9.58838e-07
2	0	0	1	0	0	0	44.1	-0.300004	-0.300099	-0.00323148	-1.9678e-05	-1.9678e-05	41	-4.55728e-06	3	1.38498e-08	1.36774e-09	2.41429e+06	536550	7.1	4.55728e-06	0.000000000000000E+000	4.55728e-06	0.0000000E+000	1	9.69761e-07
2	0	0	1	0	0	0	44.6	-0.300004	-0.300144	-0.00328985	-2.13119e-05	-2.13119e-05	41	-5.01115e-06	3	1.38498e-08	1.50396e-09	2.41429e+06	1.17768e+06	7.6	5.01115e-06	0.000000000000000E+000	5.01115e-06	0.0000000E+000	1	9.8743e-07
2	0	0	1	0	0	0	45.1	-0.300004	-0.300106	-0.00328993	-2.29631e-05	-2.29631e-05	41	-5.46983e-06	3	1.38498e-08	1.64162e-09	2.41429e+06	859211	8.1	5.46983e-06	0.000000000000000E+000	5.46983e-06	0.0000000E+000	1	9.8733e-07
2	0	0	1	0	0	0	45.6	-0.300004	-0.300133	-0.00333981	-2.4622e-05	-2.4622e-05	41	-5.93062e-06	3	1.38498e-08	1.77991e-09	2.41429e+06	5.55345e+06	8.6	5.93062e-06	0.000000000000000E+000	5.93062e-06	0.0000000E+000	1	1.00239e-06
2	0	0	1	0	0	0	46.1	-0.300004	-0.300141	-0.00330358	-2.62898e-05	-2.62898e-05	41	-6.3939e-06	3	1.38498e-08	1.91895e-09	2.41429e+06	2.00612e+06	9.1	6.3939e-06	0.000000000000000E+000	6.3939e-06	0.0000000E+000	1	9.91539e-07
2	0	0	1	0	0	0	46.6	-0.300004	-0.300156	-0.00335454	-2.79682e-05	-2.79682e-05	41	-6.86013e-06	3	1.38498e-08	2.05889e-09	2.41429e+06	922802	9.6	6.86013e-06	0.000000000000000E+000	6.86013e-06	0.0000000E+000	1	1.00688e-06
2	0	0	1	0	0	0	47.1	-0.300004	-0.300129	-0.00337119	-2.96492e-05	-2.96492e-05	41	-7.32707e-06	3	1.38498e-08	2.19902e-09	2.41429e+06	0.000000000000000E+000	10.1	7.32707e-06	0.000000000000000E+000	7.32707e-06	0.0000000E+000	1	1.01179e-06
2	0	0	1	0	0	0	47.6	-0.300004	-0.300099	-0.00343215	-3.13515e-05	-3.13515e-05	41	-7.79993e-06	3	1.38498e-08	2.34093e-09	2.41429e+06	918324	10.6	7.79993e-06	0.000000000000000E+000	7.79993e-06	0.0000000E+000	1	1.02998e-06
2	0	0	1	0	0	0	48.1	-0.300004	-0.300129	-0.00343106	-3.3073e-05	-3.3073e-05	41	-8.27811e-06	3	1.38498e-08	2.48443e-09	2.41429e+06	0.000000000000000E+000	11.1	8.27811e-06	0.000000000000000E+000	8.27811e-06	0.0000000E+000	1	1.02976e-06
2	0	0	1	0	0	0	48.6	-0.300004	-0.300072	-0.00346801	-3.47984e-05	-3.47984e-05	41	-8.75739e-06	3	1.38498e-08	2.62827e-09	2.41429e+06	549822	11.6	8.75739e-06	0.000000000000000E+000	8.75739e-06	0.0000000E+000	1	1.04065e-06
2	0	0	1	0	0	0	49.1	-0.300004	-0.300076	-0.00346994	-3.65382e-05	-3.65382e-05	41	-9.24067e-06	3	1.38498e-08	2.77331e-09	2.41429e+06	621512	12.1	9.24067e-06	0.000000000000000E+000	9.24067e-06	0.0000000E+000	1	1.04124e-06
2	0	0	1	0	0	0	49.6	-0.300004	-0.300137	-0.0035087	-3.82888e-05	-3.82888e-05	41	-9.72695e-06	3	1.38498e-08	2.91925e-09	2.41429e+06	4.57189e+06	12.6	9.72695e-06	0.000000000000000E+000	9.72695e-06	0.0000000E+000	1	1.05309e-06
2	0	0	1	0	0	0	50.1	-0.300004	-0.300144	-0.00323598	-3.99516e-05	-3.99516e-05	41	-1.01888e-05	3	1.38498e-08	3.05787e-09	2.41429e+06	2.39449e+06	13.1	1.01888e-05	0.000000000000000E+000	1.01888e-05	0.0000000E+000	1	9.71261e-07
2	0	0	1	0	0	0	50.6	-0.300004	-0.300106	-0.00324644	-4.15749e-05	-4.15749e-05	41	-1.06397e-05	3	1.38498e-08	3.1932e-09	2.41429e+06	1.67131e+06	13.6	1.06397e-05	0.000000000000000E+000	1.06397e-05	0.0000000E+000	1	9.74277e-07
2	0	0	1	0	0	0	51.1	-0.300004	-0.300118	-0.0032736	-4.32051e-05	-4.32051e-05	41	-1.10926e-05	3	1.38498e-08	3.32911e-09	2.41429e+06	3.48943e+06	14.1	1.10926e-05	0.000000000000000E+000	1.10926e-05	0.0000000E+000	1	9.82465e-07
2	0	0	1	0	0	0	51.6	-0.300004	-0.300194	-0.00328143	-4.48488e-05	-4.48488e-05	41	-1.15492e-05	3	1.38498e-08	3.46615e-09	2.41429e+06	639657	14.6	1.15492e-05	0.000000000000000E+000	1.15492e-05	0.0000000E+000	1	9.85067e-07
2	0	0	1	0	0	0	52.1	-0.300004	-0.300133	-0.00328841	-4.6489e-05	-4.6489e-05	41	-1.20048e-05	3	1.38498e-08	3.6029e-09	2.41429e+06	1.12413e+07	15.1	1.20048e-05	0.000000000000000E+000	1.20048e-05	0.0000000E+000	1	9.8696e-07
2	0	0	1	0	0	0	52.6	-0.300004	-0.300144	-0.00333201	-4.81395e-05	-4.81395e-05	41	-1.24633e-05	3	1.38498e-08	3.7405e-09	2.41429e+06	2.92901e+06	15.6	1.24633e-05	0.000000000000000E+000	1.24633e-05	0.0000000E+000	1	1.00008e-06
2	0	0	1	0	0	0	53.1	-0.300004	-0.300125	-0.00333206	-4.97984e-05	-4.97984e-05	41	-1.29241e-05	3	1.38498e-08	3.8788e-09	2.41429e+06	1.21967e+07	16.1	1.29241e-05	0.000000000000000E+000	1.29241e-05	0.0000000E+000	1	1.00004e-06
2	0	0	1	0	0	0	53.6	-0.300004	-0.300144	-0.00325401	-5.14442e-05	-5.14442e-05	41	-1.33812e-05	3	1.38498e-08	4.01601e-09	2.41429e+06	3.14475e+06	16.6	1.33812e-05	0.000000000000000E+000	1.33812e-05	0.0000000E+000	1	9.76674e-07
2	0	0	1	0	0	0	54.1	-0.300004	-0.300068	-0.0031621	-5.30542e-05	-5.30542e-05	41	-1.38285e-05	3	1.38498e-08	4.15022e-09	2.41429e+06	814046	17.1	1.38285e-05	0.000000000000000E+000	1.38285e-05	0.0000000E+000	1	9.48844e-07
2	0	0	1	0	0	0	54.6	-0.300004	-0.300102	-0.00295729	-5.45839e-05	-5.45839e-05	41	-1.42534e-05	3	1.38498e-08	4.27776e-09	2.41429e+06	1.91945e+06	17.6	1.42534e-05	0.000000000000000E+000	1.42534e-05	0.0000000E+000	1	8.87489e-07
2	0	0	1	0	0	0	55.1	-0.300004	-0.300125	-0.00255944	-5.59616e-05	-5.59616e-05	41	-1.46361e-05	3	1.38498e-08	4.39261e-09	2.41429e+06	1.38123e+07	18.1	1.46361e-05	0.000000000000000E+000	1.46361e-05	0.0000000E+000	1	7.68153e-07
2	0	0	1	0	0	0	55.6	-0.300004	-0.300076	-0.0017908	-5.70187e-05	-5.70187e-05	41	-1.49297e-05	3	1.38498e-08	4.48074e-09	2.41429e+06	1.00415e+06	18.6	1.49297e-05	0.000000000000000E+000	1.49297e-05	0.0000000E+000	1	5.37375e-07
2	0	0	1	0	0	0	56.1	-0.300004	-0.300129	-0.00110948	-5.76987e-05	-5.76987e-05	41	-1.51186e-05	3	1.38498e-08	4.53744e-09	2.41429e+06	0.000000000000000E+000	19.1	1.51186e-05	0.000000000000000E+000	1.51186e-05	0.0000000E+000	1	3.32989e-07
2	0	0	1	0	0	0	56.6	-0.300004	-0.300137	-0.000505769	-5.80735e-05	-5.80735e-05	41	-1.52227e-05	3	1.38498e-08	4.56868e-09	2.41429e+06	7.15503e+06	19.6	1.52227e-05	0.000000000000000E+000	1.52227e-05	0.0000000E+000	1	1.518e-07
2	0	0	1	0	0	0	57.1	-0.300004	-0.300095	-5.75259e-05	-5.82115e-05	-5.82115e-05	41	-1.5261e-05	3	1.38498e-08	4.58018e-09	2.41429e+06	1.59746e+06	20.1	1.5261e-05	0.000000000000000E+000	1.5261e-05	33.0691	1	1.72632e-08
2	1	0	1	0	0	0	57.6	-0.300004	-0.300152	0.000493456	-5.8069e-05	-5.8069e-05	41	3.95717e-08	4	1.18778e-11	0.000000000000000E+000	4142.21	0.000000000000000E+000	0.4	0.000000000000000E+000	3.95717e-08	3.95717e-08	0.0000000E+000	2	-1.48112e-07
2	1	0	1	0	0	0	58.1	-0.300004	-0.300114	0.00124002	-5.76217e-05	-5.76217e-05	41	1.63833e-07	4	4.91722e-11	0.000000000000000E+000	154612	0.000000000000000E+000	0.9	0.000000000000000E+000	1.63833e-07	1.63833e-07	0.0000000E+000	2	-3.72147e-07
2	1	0	1	0	0	0	58.6	-0.300004	-0.300102	0.00233276	-5.66878e-05	-5.66878e-05	41	4.23247e-07	4	1.27028e-10	0.000000000000000E+000	99468.1	0.000000000000000E+000	1.4	0.000000000000000E+000	4.23247e-07	4.23247e-07	0.0000000E+000	2	-7.00068e-07
2	1	0	1	0	0	0	59.1	-0.300004	-0.300099	0.00370796	-5.51314e-05	-5.51314e-05	41	8.5558e-07	4	2.5678e-10	0.000000000000000E+000	160982	0.000000000000000E+000	1.9	0.000000000000000E+000	8.5558e-07	8.5558e-07	0.0000000E+000	2	-1.11275e-06
2	1	0	1	0	0	0	59.6	-0.300004	-0.300141	0.0052643	-5.28167e-05	-5.28167e-05	41	1.49853e-06	4	4.49753e-10	0.000000000000000E+000	235392	0.000000000000000E+000	2.4	0.000000000000000E+000	1.49853e-06	1.49853e-06	0.0000000E+000	2	-1.58003e-06
2	1	0	1	0	0	0	60.1	-0.300004	-0.300102	0.00698172	-4.9711e-05	-4.9711e-05	41	2.36124e-06	4	7.08681e-10	0.000000000000000E+000	556001	0.000000000000000E+000	2.9	0.000000000000000E+000	2.36124e-06	2.36124e-06	0.0000000E+000	2	-2.09523e-06
2	1	0	1	0	0	0	60.6	-0.300004	-0.300167	0.00844244	-4.57445e-05	-4.57445e-05	41	3.46305e-06	4	1.03937e-09	0.000000000000000E+000	250943	0.000000000000000E+000	3.4	0.000000000000000E+000	3.46305e-06	3.46305e-06	0.0000000E+000	2	-2.53414e-06
2	1	0	1	0	0	0	61.1	-0.300004	-0.30016	0.00861029	-4.14184e-05	-4.14184e-05	41	4.66475e-06	4	1.40008e-09	0.000000000000000E+000	399350	0.000000000000000E+000	3.9	0.000000000000000E+000	4.66475e-06	4.66475e-06	0.0000000E+000	2	-2.58446e-06
2	1	0	1	0	0	0	61.6	-0.300004	-0.300121	0.00764343	-3.73434e-05	-3.73434e-05	41	5.7967e-06	4	1.73981e-09	0.000000000000000E+000	5.47045e+06	0.000000000000000E+000	4.4	0.000000000000000E+000	5.7967e-06	5.7967e-06	0.0000000E+000	2	-2.29396e-06
2	1	0	1	0	0	0	62.1	-0.300004	-0.300144	0.00592144	-3.40415e-05	-3.40415e-05	41	6.71389e-06	4	2.0151e-09	0.000000000000000E+000	903130	0.000000000000000E+000	4.9	0.000000000000000E+000	6.71389e-06	6.71389e-06	0.0000000E+000	2	-1.77729e-06
2	1	0	1	0	0	0	62.6	-0.300004	-0.300171	0.00412746	-3.16137e-05	-3.16137e-05	41	7.38827e-06	4	2.21751e-09	0.000000000000000E+000	496923	0.000000000000000E+000	5.4	0.000000000000000E+000	7.38827e-06	7.38827e-06	0.0000000E+000	2	-1.23895e-06
2	1	0	1	0	0	0	63.1	-0.300004	-0.300064	0.0023253	-3.01205e-05	-3.01205e-05	41	7.80306e-06	4	2.34199e-09	0.000000000000000E+000	524820	0.000000000000000E+000	5.9	0.000000000000000E+000	7.80306e-06	7.80306e-06	0.0000000E+000	2	-6.97738e-07
2	1	0	1	0	0	0	63.6	-0.300004	-0.300099	0.000760451	-2.94185e-05	-2.94185e-05	41	7.99806e-06	4	2.40051e-09	0.000000000000000E+000	1.50488e+06	0.000000000000000E+000	6.4	0.000000000000000E+000	7.99806e-06	7.99806e-06	0.0000000E+000	2	-2.2821e-07
2	0	0	1	0	0	0	64.1	-0.300004	-0.300129	-0.000447737	-2.94119e-05	-2.94119e-05	41	-1.8569e-08	5	2.40663e-09	5.5731e-12	2.51583e+06	8727.85	0.1	1.8569e-08	0.000000000000000E+000	1.8569e-08	0.0000000E+000	2	1.34379e-07
2	0	0	1	0	0	0	64.6	-0.300004	-0.300095	-0.00133879	-2.99169e-05	-2.99169e-05	41	-1.58829e-07	5	2.40663e-09	4.76679e-11	2.51583e+06	13597.4	0.6	1.58829e-07	0.000000000000000E+000	1.58829e-07	0.0000000E+000	2	4.01765e-07
2	0	0	1	0	0	0	65.1	-0.300004	-0.300144	-0.0019937	-3.07895e-05	-3.07895e-05	41	-4.01223e-07	5	2.40663e-09	1.20413e-10	2.51583e+06	188584	1.1	4.01223e-07	0.000000000000000E+000	4.01223e-07	0.0000000E+000	2	5.98398e-07
2	0	0	1	0	0	0	65.6	-0.300004	-0.300106	-0.00243609	-3.19159e-05	-3.19159e-05	41	-7.14118e-07	5	2.40663e-09	2.14322e-10	2.51583e+06	84076.6	1.6	7.14118e-07	0.000000000000000E+000	7.14118e-07	0.0000000E+000	2	7.31087e-07
2	0	0	1	0	0	0	66.1	-0.300004	-0.300083	-0.00270451	-3.32162e-05	-3.32162e-05	41	-1.07531e-06	5	2.40663e-09	3.22724e-10	2.51583e+06	72323.7	2.1	1.07531e-06	0.000000000000000E+000	1.07531e-06	0.0000000E+000	2	8.11579e-07
2	0	0	1	0	0	0	66.6	-0.300004	-0.300102	-0.00286471	-3.46122e-05	-3.46122e-05	41	-1.46309e-06	5	2.40663e-09	4.39101e-10	2.51583e+06	153017	2.6	1.46309e-06	0.000000000000000E+000	1.46309e-06	0.0000000E+000	2	8.59707e-07
2	0	0	1	0	0	0	67.1	-0.300004	-0.300156	-0.00296688	-3.60766e-05	-3.60766e-05	41	-1.86986e-06	5	2.40663e-09	5.61189e-10	2.51583e+06	351825	3.1	1.86986e-06	0.000000000000000E+000	1.86986e-06	0.0000000E+000	2	8.90526e-07
2	0	0	1	0	0	0	67.6	-0.300004	-0.300125	-0.0030448	-3.75857e-05	-3.75857e-05	41	-2.28905e-06	5	2.40663e-09	6.86999e-10	2.51583e+06	718203	3.6	2.28905e-06	0.000000000000000E+000	2.28905e-06	0.0000000E+000	2	9.13822e-07
2	0	0	1	0	0	0	68.1	-0.300004	-0.300125	-0.00309304	-3.9126e-05	-3.9126e-05	41	-2.71692e-06	5	2.40663e-09	8.15405e-10	2.51583e+06	852449	4.1	2.71692e-06	0.000000000000000E+000	2.71692e-06	0.0000000E+000	2	9.28298e-07
2	0	0	1	0	0	0	68.6	-0.300004	-0.300072	-0.003128	-4.06757e-05	-4.06757e-05	41	-3.14738e-06	5	2.40663e-09	9.446e-10	2.51583e+06	174320	4.6	3.14738e-06	0.000000000000000E+000	3.14738e-06	0.0000000E+000	2	9.38625e-07
2	0	0	1	0	0	0	69.1	-0.300004	-0.300121	-0.00312222	-4.22358e-05	-4.22358e-05	41	-3.58076e-06	5	2.40663e-09	1.07467e-09	2.51583e+06	843161	5.1	3.58076e-06	0.000000000000000E+000	3.58076e-06	0.0000000E+000	2	9.37046e-07
2	0	0	1	0	0	0	69.6	-0.300004	-0.300148	-0.00315972	-4.38061e-05	-4.38061e-05	41	-4.01695e-06	5	2.40663e-09	1.20558e-09	2.51583e+06	1.26034e+06	5.6	4.01695e-06	0.000000000000000E+000	4.01695e-06	0.0000000E+000	2	9.48386e-07
2	0	0	1	0	0	0	70.1	-0.300004	-0.300099	-0.00316839	-4.53862e-05	-4.53862e-05	41	-4.45586e-06	5	2.40663e-09	1.3373e-09	2.51583e+06	419852	6.1	4.45586e-06	0.000000000000000E+000	4.45586e-06	0.0000000E+000	2	9.50829e-07
2	0	0	1	0	0	0	70.6	-0.300004	-0.300144	-0.00320718	-4.69824e-05	-4.69824e-05	41	-4.89924e-06	5	2.40663e-09	1.47038e-09	2.51583e+06	2.30275e+06	6.6	4.89924e-06	0.000000000000000E+000	4.89924e-06	0.0000000E+000	2	9.62616e-07
2	0	0	1	0	0	0	71.1	-0.300004	-0.300099	-0.00319798	-4.85802e-05	-4.85802e-05	41	-5.34308e-06	5	2.40663e-09	1.60359e-09	2.51583e+06	503057	7.1	5.34308e-06	0.000000000000000E+000	5.34308e-06	0.0000000E+000	2	9.59708e-07
2	0	0	1	0	0	0	71.6	-0.300004	-0.300121	-0.0032637	-5.01937e-05	-5.01937e-05	41	-5.79129e-06	5	2.40663e-09	1.73811e-09	2.51583e+06	1.36367e+06	7.6	5.79129e-06	0.000000000000000E+000	5.79129e-06	0.0000000E+000	2	9.79507e-07
2	0	0	1	0	0	0	72.1	-0.300004	-0.300148	-0.00328192	-5.18291e-05	-5.18291e-05	41	-6.24555e-06	5	2.40663e-09	1.87445e-09	2.51583e+06	1.95958e+06	8.1	6.24555e-06	0.000000000000000E+000	6.24555e-06	0.0000000E+000	2	9.85063e-07
2	0	0	1	0	0	0	72.6	-0.300004	-0.300121	-0.00333187	-5.34859e-05	-5.34859e-05	41	-6.70578e-06	5	2.40663e-09	2.01259e-09	2.51583e+06	1.57901e+06	8.6	6.70578e-06	0.000000000000000E+000	6.70578e-06	0.0000000E+000	2	9.99967e-07
2	0	0	1	0	0	0	73.1	-0.300004	-0.300102	-0.00345166	-5.5184e-05	-5.5184e-05	41	-7.17747e-06	5	2.40663e-09	2.15415e-09	2.51583e+06	750657	9.1	7.17747e-06	0.000000000000000E+000	7.17747e-06	0.0000000E+000	2	1.03585e-06
2	0	0	1	0	0	0	73.6	-0.300004	-0.300068	-0.00367304	-5.69794e-05	-5.69794e-05	41	-7.6762e-06	5	2.40663e-09	2.30382e-09	2.51583e+06	401583	9.6	7.6762e-06	0.000000000000000E+000	7.6762e-06	0.0000000E+000	2	1.10216e-06
2	0	0	1	0	0	0	74.1	-0.300004	-0.300118	-0.00372479	-5.88267e-05	-5.88267e-05	41	-8.18932e-06	5	2.40663e-09	2.45781e-09	2.51583e+06	1.54327e+06	10.1	8.18932e-06	0.000000000000000E+000	8.18932e-06	0.0000000E+000	2	1.11787e-06
2	0	0	1	0	0	0	74.6	-0.300004	-0.300091	-0.00371997	-6.07181e-05	-6.07181e-05	41	-8.71471e-06	5	2.40663e-09	2.61549e-09	2.51583e+06	684017	10.6	8.71471e-06	0.000000000000000E+000	8.71471e-06	0.0000000E+000	2	1.11633e-06
2	0	0	1	0	0	0	75.1	-0.300004	-0.300121	-0.00343822	-6.24817e-05	-6.24817e-05	41	-9.2046e-06	5	2.40663e-09	2.76252e-09	2.51583e+06	2.16741e+06	11.1	9.2046e-06	0.000000000000000E+000	9.2046e-06	0.0000000E+000	2	1.03188e-06
2	0	0	1	0	0	0	75.6	-0.300004	-0.300137	-0.00336569	-6.41781e-05	-6.41781e-05	41	-9.67584e-06	5	2.40663e-09	2.90394e-09	2.51583e+06	0.000000000000000E+000	11.6	9.67584e-06	0.000000000000000E+000	9.67584e-06	0.0000000E+000	2	1.01017e-06
2	0	0	1	0	0	0	76.1	-0.300004	-0.300167	-0.00337132	-6.58758e-05	-6.58758e-05	41	-1.01474e-05	5	2.40663e-09	3.04547e-09	2.51583e+06	1.1947e+06	12.1	1.01474e-05	0.000000000000000E+000	1.01474e-05	0.0000000E+000	2	1.01196e-06
2	0	0	1	0	0	0	76.6	-0.300004	-0.300133	-0.00333167	-6.75407e-05	-6.75407e-05	41	-1.06099e-05	5	2.40663e-09	3.18427e-09	2.51583e+06	1.00128e+07	12.6	1.06099e-05	0.000000000000000E+000	1.06099e-05	0.0000000E+000	2	9.99944e-07
2	0	0	1	0	0	0	77.1	-0.300004	-0.300125	-0.00324241	-6.91678e-05	-6.91678e-05	41	-1.10619e-05	5	2.40663e-09	3.31991e-09	2.51583e+06	3.47976e+06	13.1	1.10619e-05	0.000000000000000E+000	1.10619e-05	0.0000000E+000	2	9.73129e-07
2	0	0	1	0	0	0	77.6	-0.300004	-0.300076	-0.0031489	-7.07606e-05	-7.07606e-05	41	-1.15043e-05	5	2.40663e-09	3.45269e-09	2.51583e+06	677228	13.6	1.15043e-05	0.000000000000000E+000	1.15043e-05	0.0000000E+000	2	9.44908e-07
2	0	0	1	0	0	0	78.1	-0.300004	-0.30011	-0.00314698	-7.23342e-05	-7.23342e-05	41	-1.19414e-05	5	2.40663e-09	3.58387e-09	2.51583e+06	1.60632e+06	14.1	1.19414e-05	0.000000000000000E+000	1.19414e-05	0.0000000E+000	2	9.44441e-07
2	0	0	1	0	0	0	78.6	-0.300004	-0.300125	-0.00311024	-7.38958e-05	-7.38958e-05	41	-1.23752e-05	5	2.40663e-09	3.71406e-09	2.51583e+06	3.88279e+06	14.6	1.23752e-05	0.000000000000000E+000	1.23752e-05	0.0000000E+000	2	9.33463e-07
2	0	0	1	0	0	0	79.1	-0.300004	-0.300141	-0.00311167	-7.54587e-05	-7.54587e-05	41	-1.28093e-05	5	2.40663e-09	3.84436e-09	2.51583e+06	1.19947e+07	15.1	1.28093e-05	0.000000000000000E+000	1.28093e-05	0.0000000E+000	2	9.33939e-07
2	0	0	1	0	0	0	79.6	-0.300004	-0.300118	-0.0030963	-7.70095e-05	-7.70095e-05	41	-1.32401e-05	5	2.40663e-09	3.97364e-09	2.51583e+06	2.49509e+06	15.6	1.32401e-05	0.000000000000000E+000	1.32401e-05	0.0000000E+000	2	9.29253e-07
2	0	0	1	0	0	0	80.1	-0.300004	-0.300148	-0.00305801	-7.85479e-05	-7.85479e-05	41	-1.36675e-05	5	2.40663e-09	4.10189e-09	2.51583e+06	4.28824e+06	16.1	1.36675e-05	0.000000000000000E+000	1.36675e-05	0.0000000E+000	2	9.17855e-07
2	0	0	1	0	0	0	80.6	-0.300004	-0.300076	-0.00306756	-8.00838e-05	-8.00838e-05	41	-1.40941e-05	5	2.40663e-09	4.22992e-09	2.51583e+06	829278	16.6	1.40941e-05	0.000000000000000E+000	1.40941e-05	0.0000000E+000	2	9.20499e-07
2	0	0	1	0	0	0	81.1	-0.300004	-0.300083	-0.00306963	-8.16208e-05	-8.16208e-05	41	-1.4521e-05	5	2.40663e-09	4.35806e-09	2.51583e+06	976660	17.1	1.4521e-05	0.000000000000000E+000	1.4521e-05	0.0000000E+000	2	9.21143e-07
2	0	0	1	0	0	0	81.6	-0.300004	-0.300091	-0.00303105	-8.3143e-05	-8.3143e-05	41	-1.49439e-05	5	2.40663e-09	4.48495e-09	2.51583e+06	1.17294e+06	17.6	1.49439e-05	0.000000000000000E+000	1.49439e-05	0.0000000E+000	2	9.0959e-07
2	0	0	1	0	0	0	82.1	-0.300004	-0.300148	-0.00305288	-8.46625e-05	-8.46625e-05	41	-1.5366e-05	5	2.40663e-09	4.61164e-09	2.51583e+06	4.82116e+06	18.1	1.5366e-05	0.000000000000000E+000	1.5366e-05	0.0000000E+000	2	9.16316e-07
2	0	0	1	0	0	0	82.6	-0.300004	-0.300125	-0.00304463	-8.61884e-05	-8.61884e-05	41	-1.57898e-05	5	2.40663e-09	4.73884e-09	2.51583e+06	4.95414e+06	18.6	1.57898e-05	0.000000000000000E+000	1.57898e-05	0.0000000E+000	2	9.1377e-07
2	0	0	1	0	0	0	83.1	-0.300004	-0.300125	-0.00304437	-8.77188e-05	-8.77188e-05	41	-1.62149e-05	5	2.40663e-09	4.86642e-09	2.51583e+06	5.10077e+06	19.1	1.62149e-05	0.000000000000000E+000	1.62149e-05	0.0000000E+000	2	9.13692e-07
2	0	0	1	0	0	0	83.6	-0.300004	-0.300125	-0.00303262	-8.92335e-05	-8.92335e-05	41	-1.66357e-05	5	2.40663e-09	4.99269e-09	2.51583e+06	5.21953e+06	19.6	1.66357e-05	0.000000000000000E+000	1.66357e-05	0.0000000E+000	2	9.10165e-07
2	0	0	1	0	0	0	84.1	-0.300004	-0.300083	-0.00302179	-9.07472e-05	-9.07472e-05	41	-1.70562e-05	5	2.40663e-09	5.11888e-09	2.51583e+06	1.14717e+06	20.1	1.70562e-05	0.000000000000000E+000	1.70562e-05	0.0000000E+000	2	9.06788e-07
2	0	0	1	0	0	0	84.6	-0.300004	-0.300091	-0.0030215	-9.22595e-05	-9.22595e-05	41	-1.74762e-05	5	2.40663e-09	5.24495e-09	2.51583e+06	1.37171e+06	20.6	1.74762e-05	0.000000000000000E+000	1.74762e-05	0.0000000E+000	2	9.06726e-07
2	0	0	1	0	0	0	85.1	-0.300004	-0.300087	-0.00302684	-9.37717e-05	-9.37717e-05	41	-1.78963e-05	5	2.40663e-09	5.371e-09	2.51583e+06	1.29604e+06	21.1	1.78963e-05	0.000000000000000E+000	1.78963e-05	0.0000000E+000	2	9.08315e-07
2	0	0	1	0	0	0	85.6	-0.300004	-0.300049	-0.00303227	-9.52834e-05	-9.52834e-05	41	-1.83162e-05	5	2.40663e-09	5.49702e-09	2.51583e+06	750007	21.6	1.83162e-05	0.000000000000000E+000	1.83162e-05	0.0000000E+000	2	9.0983e-07
2	0	0	1	0	0	0	86.1	-0.300004	-0.30011	-0.0030026	-9.67926e-05	-9.67926e-05	41	-1.87354e-05	5	2.40663e-09	5.62283e-09	2.51583e+06	2.52023e+06	22.1	1.87354e-05	0.000000000000000E+000	1.87354e-05	0.0000000E+000	2	9.0111e-07
2	0	0	1	0	0	0	86.6	-0.300004	-0.300106	-0.00298966	-9.82908e-05	-9.82908e-05	41	-1.91516e-05	5	2.40663e-09	5.74773e-09	2.51583e+06	2.25481e+06	22.6	1.91516e-05	0.000000000000000E+000	1.91516e-05	0.0000000E+000	2	8.97214e-07
2	0	0	1	0	0	0	87.1	-0.300004	-0.30016	-0.00295685	-9.97816e-05	-9.97816e-05	41	-1.95657e-05	5	2.40663e-09	5.872e-09	2.51583e+06	3.06942e+06	23.1	1.95657e-05	0.000000000000000E+000	1.95657e-05	0.0000000E+000	2	8.87528e-07
2	0	0	1	0	0	0	87.6	-0.300004	-0.300083	-0.00300086	-0.000101277	-0.000101277	41	-1.99812e-05	5	2.40663e-09	5.99669e-09	2.51583e+06	1.3439e+06	23.6	1.99812e-05	0.000000000000000E+000	1.99812e-05	0.0000000E+000	2	9.00508e-07
2	0	0	1	0	0	0	88.1	-0.300004	-0.300095	-0.00295521	-0.000102765	-0.000102765	41	-2.03944e-05	5	2.40663e-09	6.1207e-09	2.51583e+06	1.74597e+06	24.1	2.03944e-05	0.000000000000000E+000	2.03944e-05	0.0000000E+000	2	8.86843e-07
2	0	0	1	0	0	0	88.6	-0.300004	-0.300099	-0.00297598	-0.000104253	-0.000104253	41	-2.08076e-05	5	2.40663e-09	6.24471e-09	2.51583e+06	1.95906e+06	24.6	2.08076e-05	0.000000000000000E+000	2.08076e-05	0.0000000E+000	2	8.93088e-07
2	0	0	1	0	0	0	89.1	-0.300004	-0.300106	-0.00297793	-0.000105737	-0.000105737	41	-2.122e-05	5	2.40663e-09	6.36845e-09	2.51583e+06	2.49833e+06	25.1	2.122e-05	0.000000000000000E+000	2.122e-05	0.0000000E+000	2	8.93694e-07
2	0	0	1	0	0	0	89.6	-0.300004	-0.30011	-0.002966	-0.000107224	-0.000107224	41	-2.16331e-05	5	2.40663e-09	6.49246e-09	2.51583e+06	2.91002e+06	25.6	2.16331e-05	0.000000000000000E+000	2.16331e-05	0.0000000E+000	2	8.90127e-07
2	0	0	1	0	0	0	90.1	-0.300004	-0.300087	-0.00293698	-0.000108696	-0.000108696	41	-2.20419e-05	5	2.40663e-09	6.61512e-09	2.51583e+06	1.59722e+06	26.1	2.20419e-05	0.000000000000000E+000	2.20419e-05	0.0000000E+000	2	8.81349e-07
2	0	0	1	0	0	0	90.6	-0.300004	-0.300064	-0.00294259	-0.000110169	-0.000110169	41	-2.2451e-05	5	2.40663e-09	6.73791e-09	2.51583e+06	1.11284e+06	26.6	2.2451e-05	0.000000000000000E+000	2.2451e-05	0.0000000E+000	2	8.82965e-07
2	0	0	1	0	0	0	91.1	-0.300004	-0.300121	-0.00294029	-0.000111639	-0.000111639	41	-2.28595e-05	5	2.40663e-09	6.86052e-09	2.51583e+06	5.38272e+06	27.1	2.28595e-05	0.000000000000000E+000	2.28595e-05	0.0000000E+000	2	8.82443e-07
2	0	0	1	0	0	0	91.6	-0.300004	-0.300148	-0.00291512	-0.000113108	-0.000113108	41	-2.32674e-05	5	2.40663e-09	6.98295e-09	2.51583e+06	7.30029e+06	27.6	2.32674e-05	0.000000000000000E+000	2.32674e-05	0.0000000E+000	2	8.74967e-07
2	0	0	1	0	0	0	92.1	-0.300004	-0.300179	-0.00296132	-0.000114577	-0.000114577	41	-2.36755e-05	5	2.40663e-09	7.10541e-09	2.51583e+06	2.02686e+06	28.1	2.36755e-05	0.000000000000000E+000	2.36755e-05	0.0000000E+000	2	8.88926e-07
2	0	0	1	0	0	0	92.6	-0.300004	-0.300076	-0.00292659	-0.000116046	-0.000116046	41	-2.40837e-05	5	2.40663e-09	7.22792e-09	2.51583e+06	1.41705e+06	28.6	2.40837e-05	0.000000000000000E+000	2.40837e-05	0.0000000E+000	2	8.78199e-07
2	0	0	1	0	0	0	93.1	-0.300004	-0.300102	-0.00295089	-0.000117509	-0.000117509	41	-2.44899e-05	5	2.40663e-09	7.34983e-09	2.51583e+06	2.5635e+06	29.1	2.44899e-05	0.000000000000000E+000	2.44899e-05	0.0000000E+000	2	8.85568e-07
2	0	0	1	0	0	0	93.6	-0.300004	-0.300179	-0.00293629	-0.000118968	-0.000118968	41	-2.48953e-05	5	2.40663e-09	7.47149e-09	2.51583e+06	2.13129e+06	29.6	2.48953e-05	0.000000000000000E+000	2.48953e-05	0.0000000E+000	2	8.81412e-07
2	0	0	1	0	0	0	94.1	-0.300004	-0.300114	-0.00289018	-0.000120423	-0.000120423	41	-2.52994e-05	5	2.40663e-09	7.5928e-09	2.51583e+06	3.97408e+06	30.1	2.52994e-05	0.000000000000000E+000	2.52994e-05	0.0000000E+000	2	8.67382e-07
2	0	0	1	0	0	0	94.6	-0.300004	-0.300121	-0.00290968	-0.000121879	-0.000121879	41	-2.57038e-05	5	2.40663e-09	7.71417e-09	2.51583e+06	6.05248e+06	30.6	2.57038e-05	0.000000000000000E+000	2.57038e-05	0.0000000E+000	2	8.73259e-07
2	0	0	1	0	0	0	95.1	-0.300004	-0.300091	-0.00288511	-0.000123343	-0.000123343	41	-2.61106e-05	5	2.40663e-09	7.83623e-09	2.51583e+06	2.04942e+06	31.1	2.61106e-05	0.000000000000000E+000	2.61106e-05	0.0000000E+000	2	8.65794e-07
2	0	0	1	0	0	0	95.6	-0.300004	-0.300179	-0.00290465	-0.000124795	-0.000124795	41	-2.6514e-05	5	2.40663e-09	7.95731e-09	2.51583e+06	2.26986e+06	31.6	2.6514e-05	0.000000000000000E+000	2.6514e-05	0.0000000E+000	2	8.71913e-07
2	0	0	1	0	0	0	96.1	-0.300004	-0.30006	-0.00289189	-0.000126239	-0.000126239	41	-2.69149e-05	5	2.40663e-09	8.07764e-09	2.51583e+06	1.26704e+06	32.1	2.69149e-05	0.000000000000000E+000	2.69149e-05	0.0000000E+000	2	8.6774e-07
2	0	0	1	0	0	0	96.6	-0.300004	-0.300087	-0.00290797	-0.000127693	-0.000127693	41	-2.73189e-05	5	2.40663e-09	8.19888e-09	2.51583e+06	1.97842e+06	32.6	2.73189e-05	0.000000000000000E+000	2.73189e-05	0.0000000E+000	2	8.72645e-07
2	0	0	1	0	0	0	97.1	-0.300004	-0.300087	-0.00289222	-0.000129143	-0.000129143	41	-2.77216e-05	5	2.40663e-09	8.31974e-09	2.51583e+06	2.00759e+06	33.1	2.77216e-05	0.000000000000000E+000	2.77216e-05	0.0000000E+000	2	8.67917e-07
2	0	0	1	0	0	0	97.6	-0.300004	-0.300148	-0.00289031	-0.000130589	-0.000130589	41	-2.81232e-05	5	2.40663e-09	8.44026e-09	2.51583e+06	8.82381e+06	33.6	2.81232e-05	0.000000000000000E+000	2.81232e-05	0.0000000E+000	2	8.67522e-07
2	0	0	1	0	0	0	98.1	-0.300004	-0.300129	-0.0029063	-0.000132032	-0.000132032	41	-2.85243e-05	5	2.40663e-09	8.56064e-09	2.51583e+06	1.34071e+07	34.1	2.85243e-05	0.000000000000000E+000	2.85243e-05	0.0000000E+000	2	8.72267e-07
2	0	0	1	0	0	0	98.6	-0.300004	-0.300148	-0.00290015	-0.000133484	-0.000133484	41	-2.89275e-05	5	2.40663e-09	8.68166e-09	2.51583e+06	9.07616e+06	34.6	2.89275e-05	0.000000000000000E+000	2.89275e-05	0.0000000E+000	2	8.70476e-07
2	0	0	1	0	0	0	99.1	-0.300004	-0.300152	-0.00291837	-0.000134935	-0.000134935	41	-2.93307e-05	5	2.40663e-09	8.80267e-09	2.51583e+06	6.90648e+06	35.1	2.93307e-05	0.000000000000000E+000	2.93307e-05	0.0000000E+000	2	8.75956e-07
2	0	0	1	0	0	0	99.6	-0.300004	-0.300152	-0.00289486	-0.000136381	-0.000136381	41	-2.97323e-05	5	2.40663e-09	8.92323e-09	2.51583e+06	7.00106e+06	35.6	2.97323e-05	0.000000000000000E+000	2.97323e-05	0.0000000E+000	2	8.68899e-07
2	0	0	1	0	0	0	100.1	-0.300004	-0.300152	-0.00287665	-0.000137824	-0.000137824	41	-3.01329e-05	5	2.40663e-09	9.04348e-09	2.51583e+06	7.09539e+06	36.1	3.01329e-05	0.000000000000000E+000	3.01329e-05	0.0000000E+000	2	8.63434e-07
2	0	0	1	0	0	0	100.6	-0.300004	-0.300121	-0.00286987	-0.000139257	-0.000139257	41	-3.05311e-05	5	2.40663e-09	9.16298e-09	2.51583e+06	7.18915e+06	36.6	3.05311e-05	0.000000000000000E+000	3.05311e-05	0.0000000E+000	2	8.6131e-07
2	0	0	1	0	0	0	101.1	-0.300004	-0.300121	-0.00284873	-0.00014069	-0.00014069	41	-3.0929e-05	5	2.40663e-09	9.28241e-09	2.51583e+06	7.28285e+06	37.1	3.0929e-05	0.000000000000000E+000	3.0929e-05	0.0000000E+000	2	8.54964e-07
2	0	0	1	0	0	0	101.6	-0.300004	-0.300121	-0.00286661	-0.000142117	-0.000142117	41	-3.13255e-05	5	2.40663e-09	9.4014e-09	2.51583e+06	7.37621e+06	37.6	3.13255e-05	0.000000000000000E+000	3.13255e-05	0.0000000E+000	2	8.60333e-07
2	0	0	1	0	0	0	101.915	-0.300004	-0.300152	-0.00285691	-0.000143009	-0.000143009	41	-3.15734e-05	5	2.40663e-09	9.47581e-09	2.51583e+06	7.43458e+06	37.9152	3.15734e-05	0.000000000000000E+000	3.15734e-05	393.76	2	8.57509e-07