File: Fig 3/Fig 3_RRDE-np-Fe2O3_25mvs_ring.mpt
mode	ox/red	error	control changes	counter inc.	time/s	control/V	Ewe/V	<I>/mA	cycle number	(Q-Qo)/C	I Range	step time/s	P/W
2	0	0	0	0	0.000000000000000E+000	-0.300027	-0.30012	-0.1039	1	0.0000000E+000	39	0.000000000000000E+000	3.11825e-05
2	1	0	0	0	0.182	-0.304576	-0.304611	0.00346258	1	-3.59586e-07	39	0.08	-1.05474e-06
2	1	0	0	0	0.382	-0.309576	-0.309605	0.00350024	1	8.02637e-08	39	0.28	-1.08369e-06
2	1	0	0	0	0.582	-0.314575	-0.314588	0.00352082	1	5.61581e-07	39	0.48	-1.10761e-06
2	1	0	0	0	0.782	-0.319574	-0.319597	0.00348611	1	1.02673e-06	39	0.68	-1.11415e-06
2	1	0	0	0	0.982	-0.324573	-0.324579	0.0032116	1	1.48278e-06	39	0.88	-1.04242e-06
2	1	0	1	0	1.1818	-0.329572	-0.329573	0.00295266	1	1.88676e-06	39	1.0798	-9.73116e-07
2	1	0	1	0	1.3818	-0.334571	-0.334584	0.00288142	1	2.22995e-06	39	1.2798	-9.64076e-07
2	1	0	1	0	1.5818	-0.33957	-0.339563	0.00259644	1	2.53376e-06	39	1.4798	-8.81655e-07
2	1	0	1	0	1.7818	-0.34457	-0.344598	0.00239166	1	2.79225e-06	39	1.6798	-8.24162e-07
2	1	0	1	0	1.9818	-0.349569	-0.349574	0.0023163	1	3.02018e-06	39	1.8798	-8.09718e-07
2	1	0	1	0	2.1818	-0.354568	-0.354568	0.00205444	1	3.2098e-06	39	2.0798	-7.28439e-07
2	1	0	0	0	2.3816	-0.359567	-0.359561	0.00198982	1	3.38749e-06	39	2.2796	-7.15462e-07
2	1	0	0	0	2.5816	-0.364566	-0.364579	0.00188969	1	3.52916e-06	39	2.4796	-6.88942e-07
2	1	0	0	0	2.7816	-0.369565	-0.369593	0.00155728	1	3.63827e-06	39	2.6796	-5.75561e-07
2	1	0	0	0	2.9816	-0.374564	-0.374598	0.00136017	1	3.71411e-06	39	2.8796	-5.09518e-07
2	1	0	0	0	3.1816	-0.379564	-0.379549	0.0014031	1	3.77259e-06	39	0.12	-5.32543e-07
2	1	0	0	0	3.3816	-0.384563	-0.384545	0.00130036	1	3.80578e-06	39	0.32	-5.00047e-07
2	1	0	1	0	3.5814	-0.389562	-0.389551	0.00113287	1	3.82063e-06	39	0.000000000000000E+000	-4.41312e-07
2	1	0	1	0	3.7814	-0.394561	-0.394556	0.00128441	1	3.80773e-06	39	0.000000000000000E+000	-5.0677e-07
2	1	0	1	0	3.9814	-0.39956	-0.399563	0.00112046	1	3.76812e-06	39	0.000000000000000E+000	-4.47695e-07
2	1	0	1	0	4.1814	-0.404559	-0.404579	0.000939131	1	3.72498e-06	39	0.16	-3.79953e-07
2	1	0	1	0	4.3814	-0.409558	-0.409587	0.00095252	1	3.6713e-06	39	0.36	-3.9014e-07
2	1	0	1	0	4.5814	-0.414558	-0.414562	0.000802332	1	3.59077e-06	39	0.56	-3.32616e-07
2	1	0	0	0	4.7812	-0.419557	-0.419586	0.000831083	1	3.49221e-06	39	0.7598	-3.48711e-07
2	1	0	0	0	4.9812	-0.424556	-0.424585	0.000674695	1	3.38238e-06	39	0.9598	-2.86465e-07
2	1	0	0	0	5.1812	-0.429555	-0.429591	0.000670309	1	3.27336e-06	39	1.1598	-2.87959e-07
2	1	0	0	0	5.3812	-0.434554	-0.43458	0.000501238	1	3.12469e-06	39	1.3598	-2.17828e-07
2	1	0	0	0	5.5812	-0.439553	-0.439567	0.000471025	1	2.95999e-06	39	1.5598	-2.07047e-07
2	1	0	0	0	5.7812	-0.444553	-0.444552	0.000344068	1	2.79359e-06	39	1.7598	-1.52956e-07
2	1	0	1	0	5.981	-0.449552	-0.449567	0.000409468	1	2.60819e-06	39	1.9596	-1.84083e-07
2	1	0	1	0	6.181	-0.454551	-0.454567	0.000423106	1	2.4269e-06	39	2.1596	-1.9233e-07
2	1	0	1	0	6.381	-0.45955	-0.459557	0.0003438	1	2.23431e-06	39	2.3596	-1.57996e-07
2	1	0	1	0	6.581	-0.464549	-0.464574	0.000193115	1	2.00788e-06	39	2.5596	-8.97163e-08
2	1	0	1	0	6.781	-0.469548	-0.469562	5.35487e-05	1	1.76707e-06	39	2.7596	-2.51445e-08
2	1	0	1	0	6.981	-0.474547	-0.474569	0.000144759	1	1.52309e-06	39	2.9596	-6.8698e-08
2	1	0	0	0	7.1808	-0.479547	-0.479556	9.34841e-05	1	1.26845e-06	39	3.1594	-4.48309e-08
2	1	0	0	0	7.3808	-0.484546	-0.484531	5.357e-05	1	1.0146e-06	39	3.3594	-2.59563e-08
2	1	0	0	0	7.5808	-0.489545	-0.48953	4.07578e-05	1	7.48628e-07	39	3.5594	-1.99522e-08
2	1	0	0	0	7.7808	-0.494544	-0.494526	5.99437e-06	1	4.66096e-07	39	3.7594	-2.96437e-09
2	1	0	0	0	7.9808	-0.499543	-0.49954	-0.000253654	1	1.53567e-07	39	3.9594	1.2671e-07
2	1	0	1	0	8.1807	-0.504541	-0.504528	-0.000336488	1	-1.57074e-07	39	4.1593	1.69768e-07
2	1	0	1	0	8.3806	-0.509541	-0.509535	-0.000270485	1	-4.64373e-07	39	4.3592	1.37821e-07
2	1	0	1	0	8.5806	-0.514541	-0.514535	-0.000204516	1	-7.78259e-07	39	4.5592	1.0523e-07
2	1	0	1	0	8.7806	-0.51954	-0.519532	-0.000313825	1	-1.11536e-06	39	4.7592	1.63042e-07
2	1	0	1	0	8.9806	-0.524539	-0.524535	-0.000303312	1	-1.46238e-06	39	4.9592	1.59097e-07
2	1	0	1	0	9.1806	-0.529538	-0.52954	-0.000547837	1	-1.83071e-06	39	5.1592	2.90101e-07
2	1	0	1	0	9.3805	-0.534539	-0.534526	-0.000566226	1	-2.2109e-06	39	5.3591	3.02662e-07
2	1	0	0	0	9.5804	-0.539536	-0.53952	-0.000512617	1	-2.58757e-06	39	5.559	2.76567e-07
2	1	0	0	0	9.7804	-0.544536	-0.544555	-0.000833114	1	-2.98164e-06	39	5.759	4.53677e-07
2	1	0	0	0	9.9804	-0.549535	-0.549541	-0.000644235	1	-3.38392e-06	39	5.959	3.54034e-07
2	0	0	0	0	10.1804	-0.554534	-0.554544	-0.00067745	1	-3.77839e-06	39	6.159	3.75676e-07
2	0	0	0	0	10.3804	-0.559533	-0.559536	-0.000756373	1	-4.19101e-06	39	6.359	4.23218e-07
2	1	0	1	0	10.5802	-0.564532	-0.564546	-0.000742749	1	-4.63228e-06	39	6.5588	4.19316e-07
2	1	0	1	0	10.7802	-0.569531	-0.569517	-0.000718242	1	-5.08477e-06	39	6.7588	4.09051e-07
2	1	0	1	0	10.9802	-0.57453	-0.574525	-0.00074041	1	-5.54556e-06	39	6.9588	4.25384e-07
2	1	0	1	0	11.1802	-0.57953	-0.579567	-0.000853891	1	-6.02106e-06	39	7.1588	4.94887e-07
2	1	0	1	0	11.3802	-0.584529	-0.584545	-0.000874221	1	-6.49471e-06	39	7.3588	5.11021e-07
2	1	0	1	0	11.5802	-0.589528	-0.589524	-0.000902577	1	-6.98946e-06	39	7.5588	5.32091e-07
2	1	0	0	0	11.78	-0.594527	-0.594518	-0.00115445	1	-7.49552e-06	39	7.7586	6.86343e-07
2	1	0	0	0	11.98	-0.599526	-0.599523	-0.00118069	1	-8.02337e-06	39	7.9586	7.07849e-07
2	1	0	0	0	12.18	-0.604525	-0.604518	-0.00117496	1	-8.5614e-06	39	8.1586	7.10287e-07
2	1	0	0	0	12.38	-0.609524	-0.60953	-0.00122179	1	-9.10943e-06	39	8.3586	7.44716e-07
2	1	0	0	0	12.58	-0.614524	-0.614538	-0.0013014	1	-9.68288e-06	39	8.5586	7.99759e-07
2	1	0	0	0	12.78	-0.619523	-0.619539	-0.00131912	1	-1.02713e-05	39	8.7586	8.17244e-07
2	1	0	1	0	12.9798	-0.624522	-0.624532	-0.00152264	1	-1.08674e-05	39	8.9584	9.5094e-07
2	1	0	1	0	13.1798	-0.629521	-0.629568	-0.00159256	1	-1.14686e-05	39	9.1584	1.00262e-06
2	1	0	1	0	13.3798	-0.63452	-0.63454	-0.00158372	1	-1.20807e-05	39	9.3584	1.00494e-06
2	0	0	1	0	13.5798	-0.639519	-0.639552	-0.00163843	1	-1.27084e-05	39	9.5584	1.04786e-06
2	1	0	1	0	13.7798	-0.644519	-0.644524	-0.00167557	1	-1.33547e-05	39	9.7584	1.07995e-06
2	0	0	1	0	13.9798	-0.649518	-0.649542	-0.00179187	1	-1.40138e-05	39	9.9584	1.16389e-06
2	1	0	0	0	14.1796	-0.654517	-0.654546	-0.00185891	1	-1.46983e-05	39	10.1582	1.21674e-06
2	1	0	0	0	14.3796	-0.659516	-0.659533	-0.00197769	1	-1.53974e-05	39	10.3582	1.30435e-06
2	1	0	0	0	14.5796	-0.664515	-0.664529	-0.00181578	1	-1.60997e-05	39	10.5582	1.20664e-06
2	1	0	0	0	14.7796	-0.669514	-0.669521	-0.00217651	1	-1.68211e-05	39	10.7582	1.45722e-06
2	1	0	0	0	14.9796	-0.674513	-0.674524	-0.00203769	1	-1.75488e-05	39	10.9582	1.37447e-06
2	1	0	0	0	15.1796	-0.679513	-0.679547	-0.0020889	1	-1.82992e-05	39	11.1582	1.4195e-06
2	1	0	1	0	15.3794	-0.684512	-0.684519	-0.00218109	1	-1.90677e-05	39	11.358	1.493e-06
2	1	0	1	0	15.5794	-0.689511	-0.689514	-0.00224283	1	-1.98509e-05	39	11.558	1.54646e-06
2	1	0	1	0	15.7794	-0.69451	-0.694509	-0.00236129	1	-2.06354e-05	39	11.758	1.63994e-06
2	1	0	1	0	15.9794	-0.699509	-0.699529	-0.00245323	1	-2.14399e-05	39	11.958	1.71611e-06
2	1	0	1	0	16.1794	-0.704508	-0.704512	-0.00252591	1	-2.22848e-05	39	12.158	1.77953e-06
2	1	0	1	0	16.3794	-0.709507	-0.709507	-0.00269747	1	-2.31467e-05	39	12.358	1.91388e-06
2	1	0	0	0	16.5792	-0.714507	-0.714506	-0.00284675	1	-2.40258e-05	39	12.5578	2.03402e-06
2	0	0	0	0	16.7792	-0.719506	-0.719519	-0.00293627	1	-2.49208e-05	39	12.7578	2.1127e-06
2	1	0	0	0	16.9792	-0.724505	-0.724498	-0.00291046	1	-2.58325e-05	39	12.9578	2.10862e-06
2	0	0	0	0	17.1792	-0.729504	-0.729533	-0.00299794	1	-2.67699e-05	39	13.1578	2.1871e-06
2	0	0	0	0	17.3792	-0.734503	-0.734511	-0.00329302	1	-2.77314e-05	39	13.3578	2.41876e-06
2	1	0	1	0	17.5791	-0.739502	-0.739484	-0.00321764	1	-2.87152e-05	39	13.5577	2.37939e-06
2	1	0	1	0	17.779	-0.744501	-0.744506	-0.00339711	1	-2.9715e-05	39	13.7576	2.52917e-06
2	0	0	1	0	17.979	-0.749501	-0.749493	-0.00342522	1	-3.07289e-05	39	13.9576	2.56718e-06
2	0	0	1	0	18.179	-0.7545	-0.754515	-0.00363313	1	-3.17686e-05	39	14.1576	2.74125e-06
2	0	0	1	0	18.379	-0.759499	-0.759509	-0.00365094	1	-3.28299e-05	39	14.3576	2.77292e-06
2	0	0	1	0	18.579	-0.764498	-0.764487	-0.00394483	1	-3.38981e-05	39	14.5576	3.01577e-06
2	0	0	1	0	18.7789	-0.769499	-0.769504	-0.00406197	1	-3.49989e-05	39	14.7575	3.1257e-06
2	0	0	0	0	18.9788	-0.774496	-0.774487	-0.00386559	1	-3.61118e-05	39	14.9574	2.99385e-06
2	0	0	0	0	19.1788	-0.779496	-0.779496	-0.00412017	1	-3.72492e-05	39	15.1574	3.21165e-06
2	0	0	0	0	19.3788	-0.784495	-0.784489	-0.00430625	1	-3.84178e-05	39	15.3574	3.3782e-06
2	0	0	0	0	19.5788	-0.789494	-0.789497	-0.00419745	1	-3.96015e-05	39	15.5574	3.31387e-06
2	0	0	0	0	19.7788	-0.794493	-0.794495	-0.00433651	1	-4.0808e-05	39	15.7574	3.44534e-06
2	0	0	1	0	19.9786	-0.799492	-0.799469	-0.00446607	1	-4.20201e-05	39	15.9572	3.57048e-06
2	0	0	1	0	20.1786	-0.804491	-0.804461	-0.00457588	1	-4.32498e-05	39	16.1572	3.68111e-06
2	0	0	1	0	20.3786	-0.80949	-0.80949	-0.00464036	1	-4.44965e-05	39	16.3572	3.75633e-06
2	0	0	1	0	20.5786	-0.81449	-0.814472	-0.00469265	1	-4.5781e-05	39	16.5572	3.82204e-06
2	0	0	1	0	20.7786	-0.819489	-0.819499	-0.00509032	1	-4.71004e-05	39	16.7572	4.17151e-06
2	0	0	1	0	20.9786	-0.824488	-0.824489	-0.00498798	1	-4.84265e-05	39	16.9572	4.11253e-06
2	0	0	0	0	21.1784	-0.829487	-0.829473	-0.00520812	1	-4.97854e-05	39	17.157	4.31999e-06
2	0	0	0	0	21.3784	-0.834486	-0.834495	-0.00532828	1	-5.11694e-05	39	17.357	4.44642e-06
2	0	0	0	0	21.5784	-0.839485	-0.839513	-0.005489	1	-5.25778e-05	39	17.557	4.60809e-06
2	0	0	0	0	21.7784	-0.844484	-0.844492	-0.00555213	1	-5.40203e-05	39	17.757	4.68873e-06
2	0	0	0	0	21.9784	-0.849484	-0.849487	-0.00577051	1	-5.54839e-05	39	17.957	4.90197e-06
2	0	0	0	0	22.1784	-0.854483	-0.854487	-0.00591282	1	-5.69927e-05	39	18.157	5.05243e-06
2	0	0	1	0	22.3782	-0.859482	-0.859488	-0.00603981	1	-5.85209e-05	39	18.3568	5.19115e-06
2	0	0	1	0	22.5782	-0.864481	-0.864493	-0.00616964	1	-6.00886e-05	39	18.5568	5.33361e-06
2	0	0	1	0	22.7782	-0.86948	-0.869498	-0.00659764	1	-6.17202e-05	39	18.7568	5.73663e-06
2	0	0	1	0	22.9782	-0.874479	-0.874501	-0.00678376	1	-6.33881e-05	39	18.9568	5.93241e-06
2	0	0	1	0	23.1782	-0.879479	-0.879498	-0.00713576	1	-6.51245e-05	39	19.1568	6.27588e-06
2	0	0	1	0	23.3782	-0.884478	-0.8845	-0.00735653	1	-6.68965e-05	39	19.3568	6.50685e-06
2	0	0	0	0	23.578	-0.889477	-0.889498	-0.00758206	1	-6.87297e-05	39	19.5566	6.74422e-06
2	0	0	0	0	23.778	-0.894476	-0.89449	-0.00772224	1	-7.06252e-05	39	19.7566	6.90746e-06
2	0	0	0	0	23.978	-0.899475	-0.899488	-0.00839034	1	-7.25834e-05	39	19.9566	7.54701e-06
2	0	0	0	0	24.178	-0.904474	-0.904478	-0.00879221	1	-7.46451e-05	39	20.1566	7.95236e-06
2	0	0	0	0	24.378	-0.909473	-0.909477	-0.00938814	1	-7.68156e-05	39	20.3566	8.5383e-06
2	0	0	0	0	24.578	-0.914473	-0.914487	-0.0098071	1	-7.90832e-05	39	20.5566	8.96847e-06
2	0	0	1	0	24.7778	-0.919472	-0.919488	-0.0106821	1	-8.14499e-05	39	20.7564	9.82211e-06
2	0	0	1	0	24.9778	-0.924471	-0.924477	-0.0114037	1	-8.39735e-05	39	20.9564	1.05424e-05
2	0	0	1	0	25.1778	-0.92947	-0.929475	-0.0123901	1	-8.66947e-05	39	21.1564	1.15163e-05
2	0	0	1	0	25.3778	-0.934469	-0.934473	-0.0139072	1	-8.96611e-05	39	21.3564	1.29959e-05
2	0	0	1	0	25.5778	-0.939468	-0.939463	-0.0153132	1	-9.29278e-05	39	21.5564	1.43862e-05
2	0	0	1	0	25.7778	-0.944467	-0.944461	-0.0169063	1	-9.64898e-05	39	21.7564	1.59674e-05
2	0	0	0	0	25.9776	-0.949467	-0.949467	-0.0192587	1	-0.000100453	39	21.9562	1.82855e-05
2	0	0	0	0	26.1776	-0.954466	-0.954469	-0.021767	1	-0.000104896	39	22.1562	2.07759e-05
2	0	0	0	0	26.3776	-0.959465	-0.959481	-0.0243634	1	-0.000109865	39	22.3562	2.33762e-05
2	0	0	0	0	26.5776	-0.964464	-0.964432	-0.0271472	1	-0.000115348	39	22.5562	2.61816e-05
2	0	0	0	0	26.7776	-0.969463	-0.969469	-0.0308586	1	-0.000121468	39	22.7562	2.99164e-05
2	0	0	1	0	26.9775	-0.974461	-0.974477	-0.0347076	1	-0.000128374	39	22.9561	3.38218e-05
2	0	0	1	0	27.1774	-0.979462	-0.979463	-0.0384991	1	-0.000136046	39	23.156	3.77084e-05
2	0	0	1	0	27.3774	-0.984461	-0.984467	-0.0420171	1	-0.000144411	39	23.356	4.13644e-05
2	0	0	1	0	27.5774	-0.98946	-0.989461	-0.0454827	1	-0.000153489	39	23.556	4.50033e-05
2	0	0	1	0	27.7774	-0.994459	-0.994449	-0.0502369	1	-0.000163407	39	23.756	4.9958e-05
2	0	0	1	0	27.9774	-0.999458	-0.999459	-0.0547363	1	-0.000174243	39	23.956	5.47067e-05
2	0	0	1	0	28.1772	-1.00446	-1.00443	-0.0586521	1	-0.000185906	39	24.1558	5.89122e-05
2	0	0	0	0	28.3772	-1.00946	-1.00944	-0.0620774	1	-0.000198331	39	24.3558	6.26637e-05
2	0	0	0	0	28.5772	-1.01446	-1.01444	-0.0648376	1	-0.000211374	39	24.5558	6.5774e-05
2	0	0	0	0	28.7772	-1.01945	-1.01945	-0.0677606	1	-0.000224974	39	24.7558	6.90785e-05
2	0	0	0	0	28.9772	-1.02445	-1.02446	-0.0693431	1	-0.000239043	39	24.9558	7.10391e-05
2	0	0	0	0	29.1772	-1.02945	-1.02946	-0.0707193	1	-0.000253402	39	25.1558	7.28026e-05
2	0	0	1	0	29.377	-1.03445	-1.03447	-0.0717974	1	-0.000267966	39	25.3556	7.4272e-05
2	0	0	1	0	29.577	-1.03945	-1.03947	-0.0739245	1	-0.000282941	39	25.5556	7.68422e-05
2	0	0	1	0	29.777	-1.04445	-1.04446	-0.0748282	1	-0.000298173	39	25.7556	7.81553e-05
2	0	0	1	0	29.977	-1.04945	-1.04947	-0.075499	1	-0.000313548	39	25.9556	7.92336e-05
2	0	0	1	0	30.177	-1.05445	-1.05444	-0.076375	1	-0.000329084	39	26.1556	8.0533e-05
2	0	0	1	0	30.377	-1.05945	-1.05943	-0.0757237	1	-0.000344635	39	26.3556	8.02238e-05
2	0	0	0	0	30.5768	-1.06445	-1.06445	-0.0763472	1	-0.00036015	39	26.5554	8.12675e-05
2	0	0	0	0	30.7768	-1.06945	-1.06943	-0.0774189	1	-0.000375857	39	26.7554	8.27943e-05
2	0	0	0	0	30.9768	-1.07445	-1.07445	-0.0775078	1	-0.000391702	39	26.9554	8.32784e-05
2	0	0	0	0	31.1768	-1.07944	-1.07945	-0.0777776	1	-0.000407506	39	27.1554	8.39566e-05
2	0	0	0	0	31.3768	-1.08444	-1.08444	-0.0784652	1	-0.000423472	39	27.3554	8.50906e-05
2	0	0	0	0	31.5768	-1.08944	-1.08944	-0.0788112	1	-0.000439537	39	27.5554	8.58602e-05
2	0	0	1	0	31.7766	-1.09444	-1.09444	-0.0788969	1	-0.000455641	39	27.7552	8.63482e-05
2	0	0	1	0	31.9766	-1.09944	-1.09943	-0.0799052	1	-0.000471823	39	27.9552	8.78503e-05
2	0	0	1	0	32.1766	-1.10444	-1.10442	-0.0807554	1	-0.000488232	39	28.1552	8.9188e-05
2	0	0	1	0	32.3766	-1.10944	-1.10943	-0.081525	1	-0.000504762	39	28.3552	9.04465e-05
2	0	0	1	0	32.5766	-1.11444	-1.11443	-0.0816892	1	-0.000521442	39	28.5552	9.10369e-05
2	0	0	1	0	32.7766	-1.11944	-1.11942	-0.0833972	1	-0.000538291	39	28.7552	9.33568e-05
2	0	0	0	0	32.9764	-1.12444	-1.12443	-0.0859531	1	-0.000555558	39	28.955	9.66482e-05
2	0	0	0	0	33.1764	-1.12944	-1.12941	-0.0891439	1	-0.000573422	39	29.155	0.00010068
2	0	0	0	0	33.3764	-1.13444	-1.13442	-0.0939942	1	-0.00059206	39	29.355	0.000106629
2	0	0	0	0	33.5764	-1.13943	-1.13941	-0.101436	1	-0.000611885	39	29.555	0.000115577
2	0	0	0	0	33.7764	-1.14443	-1.14442	-0.112932	1	-0.000633614	39	29.755	0.000129242
2	0	0	0	0	33.9764	-1.14943	-1.14941	-0.133665	1	-0.000658499	39	29.955	0.000153636
2	0	0	1	0	34.1762	-1.15443	-1.15441	-0.173213	1	-0.00068912	39	30.1548	0.000199959
2	0	0	1	0	34.3762	-1.15943	-1.1594	-0.244735	1	-0.000730786	39	30.3548	0.000283745
2	0	0	1	0	34.5762	-1.16443	-1.16441	-0.340457	1	-0.000789768	39	30.5548	0.000396431
2	0	0	1	0	34.7762	-1.16943	-1.16939	-0.415304	1	-0.000866256	39	30.7548	0.000485654
2	0	0	1	0	34.9762	-1.17443	-1.1744	-0.442922	1	-0.000953111	39	30.9548	0.000520168
2	0	0	1	0	35.1762	-1.17943	-1.17939	-0.439907	1	-0.0010422	39	31.1548	0.000518821
2	0	0	0	0	35.376	-1.18443	-1.18439	-0.432506	1	-0.00113014	39	31.3546	0.000512255
2	0	0	0	0	35.576	-1.18943	-1.1894	-0.412329	1	-0.00121478	39	31.5546	0.000490424
2	0	0	0	0	35.776	-1.19442	-1.19438	-0.393507	1	-0.00129545	39	31.7546	0.000469997
2	0	0	0	0	35.976	-1.19942	-1.19939	-0.383511	1	-0.00137343	39	31.9546	0.000459978
2	0	0	0	0	36.176	-1.20442	-1.20437	-0.372311	1	-0.00144954	39	32.1546	0.000448402
2	0	0	1	0	36.376	-1.20942	-1.20938	-0.35999	1	-0.00152303	39	32.3546	0.000435364
2	0	0	1	0	36.5758	-1.21442	-1.21438	-0.353382	1	-0.00159463	39	32.5544	0.00042914
2	0	0	1	0	36.7758	-1.21942	-1.21939	-0.356831	1	-0.00166594	39	32.7544	0.000435116
2	0	0	1	0	36.9758	-1.22442	-1.2244	-0.35982	1	-0.00173747	39	32.9544	0.000440562
2	0	0	1	0	37.1758	-1.22942	-1.2294	-0.358349	1	-0.00180945	39	33.1544	0.000440554
2	0	0	1	0	37.3758	-1.23442	-1.23441	-0.367117	1	-0.00188203	39	33.3544	0.000453172
2	0	0	0	0	37.5756	-1.23942	-1.23939	-0.373552	1	-0.00195652	39	33.5542	0.000462976
2	0	0	0	0	37.7756	-1.24442	-1.24439	-0.388677	1	-0.00203297	39	33.7542	0.000483665
2	0	0	0	0	37.9756	-1.24942	-1.24938	-0.406624	1	-0.00211248	39	33.9542	0.000508029
2	0	0	0	0	38.1756	-1.25441	-1.2544	-0.425628	1	-0.0021963	39	34.1542	0.000533907
2	0	0	0	0	38.3756	-1.25941	-1.25938	-0.450909	1	-0.00228387	39	34.3542	0.000567868
2	0	0	0	0	38.5756	-1.26441	-1.26441	-0.477424	1	-0.00237678	39	34.5542	0.00060366
2	0	0	1	0	38.7754	-1.26941	-1.26941	-0.514389	1	-0.00247628	39	34.754	0.000652969
2	0	0	1	0	38.9754	-1.27441	-1.27439	-0.563989	1	-0.00258428	39	34.954	0.000718741
2	0	0	1	0	39.1754	-1.27941	-1.27939	-0.625518	1	-0.00270387	39	35.154	0.000800279
2	0	0	1	0	39.3754	-1.28441	-1.28438	-0.704449	1	-0.00283703	39	35.354	0.000904776
2	0	0	1	0	39.5754	-1.28941	-1.28939	-0.80835	1	-0.00298792	39	35.554	0.00104227
2	0	0	1	0	39.7754	-1.29441	-1.2944	-0.961811	1	-0.00316472	39	35.754	0.00124497
2	0	0	0	0	39.9752	-1.29941	-1.29937	-1.17004	1	-0.00337703	39	35.9538	0.00152032
2	0	0	0	0	40.1752	-1.30441	-1.30437	-1.41662	1	-0.00363518	39	36.1538	0.0018478
2	0	0	0	0	40.3752	-1.30941	-1.30937	-1.71112	1	-0.00394705	39	36.3538	0.00224048
2	0	0	0	0	40.5752	-1.3144	-1.31438	-2.05269	1	-0.00432279	39	36.5538	0.00269801
2	0	0	0	0	40.7752	-1.3194	-1.31939	-2.43549	1	-0.00477275	39	36.7538	0.00321336
2	0	0	0	0	40.9752	-1.3244	-1.32437	-2.75274	1	-0.00529247	39	36.9538	0.00364564
2	0	0	1	0	41.175	-1.3294	-1.32936	-3.09451	1	-0.0058765	39	37.1536	0.00411372
2	0	0	1	0	41.375	-1.3344	-1.33437	-3.43605	1	-0.00653029	39	37.3536	0.00458498
2	0	0	1	0	41.575	-1.3394	-1.33937	-3.77335	1	-0.00725265	39	37.5536	0.00505389
2	0	0	1	0	41.775	-1.3444	-1.34439	-4.11046	1	-0.00804262	39	37.7536	0.00552604
2	0	0	1	0	41.975	-1.3494	-1.34939	-4.41081	1	-0.0088948	39	37.9536	0.0059519
2	0	0	1	1	42.0632	-1.3484	-1.34839	-4.36508	2	-0.00928354	39	38.0418	0.00588583
2	0	0	1	1	42.2632	-1.3434	-1.3434	-4.11347	2	-0.010131	39	38.2418	0.00552603
2	0	0	1	1	42.4632	-1.3384	-1.33837	-3.86712	2	-0.0109285	39	38.4418	0.00517564
2	0	0	1	1	42.6632	-1.3334	-1.33336	-3.59612	2	-0.0116738	39	38.6418	0.00479493
2	0	0	1	1	42.8632	-1.3284	-1.32837	-3.34348	2	-0.0123668	39	38.8418	0.00444137
2	0	0	0	1	43.063	-1.3234	-1.32337	-3.10946	2	-0.0130101	39	39.0416	0.00411497
2	0	0	0	1	43.263	-1.3184	-1.31839	-2.91592	2	-0.0136129	39	39.2416	0.0038443
2	0	0	0	1	43.463	-1.3134	-1.31339	-2.68717	2	-0.0141725	39	39.4416	0.0035293
2	0	0	0	1	43.663	-1.30841	-1.30837	-2.47401	2	-0.0146876	39	39.6416	0.00323693
2	0	0	0	1	43.863	-1.30341	-1.3034	-2.2891	2	-0.0151632	39	39.8416	0.00298361
2	0	0	0	1	44.063	-1.29841	-1.29837	-2.12645	2	-0.0156038	39	40.0416	0.00276092
2	0	0	1	1	44.2628	-1.29341	-1.29339	-1.96825	2	-0.0160118	39	40.2414	0.00254572
2	0	0	1	1	44.4628	-1.28841	-1.28838	-1.82693	2	-0.0163909	39	40.4414	0.00235377
2	0	0	1	1	44.6628	-1.28341	-1.28337	-1.689	2	-0.0167416	39	40.6414	0.00216761
2	0	0	1	1	44.8628	-1.27841	-1.27839	-1.57822	2	-0.0170676	39	40.8414	0.00201757
2	0	0	1	1	45.0628	-1.27341	-1.27339	-1.48132	2	-0.0173725	39	41.0414	0.0018863
2	0	0	1	1	45.2627	-1.26841	-1.2684	-1.38964	2	-0.0176589	39	41.2413	0.00176262
2	0	0	0	1	45.4626	-1.26341	-1.26341	-1.29773	2	-0.017927	39	41.4412	0.00163956
2	0	0	0	1	45.6626	-1.25841	-1.25838	-1.21363	2	-0.0181779	39	41.6412	0.00152721
2	0	0	0	1	45.8626	-1.25341	-1.25339	-1.14091	2	-0.0184124	39	41.8412	0.00143
2	0	0	0	1	46.0626	-1.24842	-1.2484	-1.08883	2	-0.0186349	39	42.0412	0.00135929
2	0	0	0	1	46.2626	-1.24342	-1.2434	-1.03134	2	-0.0188464	39	42.2412	0.00128237
2	0	0	1	1	46.4624	-1.23842	-1.23839	-0.982826	2	-0.0190471	39	42.441	0.00121712
2	0	0	1	1	46.6624	-1.23342	-1.23338	-0.940605	2	-0.019239	39	42.641	0.00116013
2	0	0	1	1	46.8624	-1.22842	-1.22839	-0.897241	2	-0.0194224	39	42.841	0.00110216
2	0	0	1	1	47.0624	-1.22342	-1.22338	-0.859301	2	-0.0195974	39	43.041	0.00105125
2	0	0	1	1	47.2624	-1.21842	-1.21838	-0.82994	2	-0.0197657	39	43.241	0.00101118
2	0	0	1	1	47.4624	-1.21342	-1.2134	-0.80574	2	-0.0199289	39	43.441	0.000977687
2	0	0	0	1	47.6622	-1.20842	-1.20838	-0.774661	2	-0.0200863	39	43.6408	0.000936085
2	0	0	0	1	47.8622	-1.20342	-1.2034	-0.74997	2	-0.0202384	39	43.8408	0.000902511
2	0	0	0	1	48.0622	-1.19842	-1.19841	-0.721949	2	-0.0203852	39	44.0408	0.000865191
2	0	0	0	1	48.2622	-1.19343	-1.19341	-0.688682	2	-0.0205259	39	44.2408	0.000821879
2	0	0	0	1	48.4622	-1.18843	-1.1884	-0.665856	2	-0.0206609	39	44.4408	0.000791302
2	0	0	0	1	48.6622	-1.18343	-1.1834	-0.63914	2	-0.0207909	39	44.6408	0.000756358
2	0	0	1	1	48.862	-1.17843	-1.17841	-0.611824	2	-0.0209154	39	44.8406	0.000720978
2	0	0	1	1	49.062	-1.17343	-1.17342	-0.582082	2	-0.0210344	39	45.0406	0.000683026
2	0	0	1	1	49.262	-1.16843	-1.16842	-0.546982	2	-0.0211471	39	45.2406	0.000639105
2	0	0	1	1	49.462	-1.16343	-1.16342	-0.510056	2	-0.0212524	39	45.4406	0.000593409
2	0	0	1	1	49.662	-1.15843	-1.15843	-0.475382	2	-0.0213504	39	45.6406	0.000550696
2	0	0	1	1	49.862	-1.15343	-1.15342	-0.440374	2	-0.0214416	39	45.8406	0.000507937
2	0	0	0	1	50.0618	-1.14843	-1.14841	-0.407522	2	-0.0215258	39	46.0404	0.000468001
2	0	0	0	1	50.2618	-1.14343	-1.14342	-0.373161	2	-0.0216035	39	46.2404	0.00042668
2	0	0	0	1	50.4618	-1.13843	-1.13842	-0.336619	2	-0.021674	39	46.4404	0.000383215
2	0	0	0	1	50.6618	-1.13344	-1.13341	-0.303833	2	-0.0217375	39	46.6404	0.000344367
2	0	0	0	1	50.8618	-1.12844	-1.1284	-0.275176	2	-0.021795	39	46.8404	0.000310508
2	0	0	0	1	51.0618	-1.12344	-1.1234	-0.246734	2	-0.0218468	39	47.0404	0.000277182
2	0	0	1	1	51.2616	-1.11844	-1.11841	-0.219331	2	-0.0218929	39	47.2402	0.000245302
2	0	0	1	1	51.4616	-1.11344	-1.11342	-0.193787	2	-0.0219337	39	47.4402	0.000215766
2	0	0	1	1	51.6616	-1.10844	-1.10842	-0.171657	2	-0.0219698	39	47.6402	0.000190268
2	0	0	1	1	51.8616	-1.10344	-1.1034	-0.150098	2	-0.0220015	39	47.8402	0.000165618
2	0	0	1	1	52.0616	-1.09844	-1.09842	-0.131404	2	-0.0220292	39	48.0402	0.000144337
2	0	0	1	1	52.2616	-1.09344	-1.09343	-0.11523	2	-0.0220534	39	48.2402	0.000125995
2	0	0	0	1	52.4614	-1.08844	-1.08842	-0.099786	2	-0.0220745	39	48.44	0.000108609
2	0	0	0	1	52.6614	-1.08344	-1.08342	-0.085985	2	-0.0220926	39	48.64	9.3158e-05
2	0	0	0	1	52.8614	-1.07844	-1.07842	-0.0736978	2	-0.0221081	39	48.84	7.94774e-05
2	0	0	0	1	53.0614	-1.07345	-1.07344	-0.0622816	2	-0.0221213	39	49.04	6.68557e-05
2	0	0	0	1	53.2614	-1.06845	-1.06844	-0.0516308	2	-0.0221322	39	49.24	5.51643e-05
2	0	0	0	1	53.4614	-1.06345	-1.06344	-0.0425531	2	-0.0221412	39	49.44	4.52528e-05
2	0	0	1	1	53.6612	-1.05845	-1.05843	-0.0344057	2	-0.0221484	39	49.6398	3.6416e-05
2	0	0	1	1	53.8612	-1.05345	-1.05344	-0.0264349	2	-0.0221541	39	49.8398	2.78475e-05
2	0	0	1	1	54.0612	-1.04845	-1.04844	-0.0182839	2	-0.0221581	39	50.0398	1.91695e-05
2	0	0	1	1	54.2612	-1.04345	-1.04343	-0.0100027	2	-0.0221606	39	50.2398	1.04371e-05
2	0	0	1	1	54.4612	-1.03845	-1.03845	-0.000293398	2	-0.0221612	39	0.000000000000000E+000	3.04679e-07
2	1	0	1	1	54.6611	-1.03345	-1.03343	0.0111156	2	-0.0221597	39	0.1999	-1.14872e-05
2	1	0	0	1	54.861	-1.02845	-1.02843	0.0235745	2	-0.0221558	39	0.3998	-2.42446e-05
2	1	0	0	1	55.061	-1.02345	-1.02343	0.0342693	2	-0.0221495	39	0.5998	-3.50723e-05
2	1	0	0	1	55.261	-1.01845	-1.01842	0.0419502	2	-0.0221414	39	0.7998	-4.2723e-05
2	1	0	0	1	55.461	-1.01346	-1.01343	0.0450351	2	-0.0221322	39	0.9998	-4.564e-05
2	1	0	0	1	55.661	-1.00846	-1.00842	0.046655	2	-0.0221226	39	1.1998	-4.70479e-05
2	1	0	1	1	55.8608	-1.00346	-1.00345	0.0486928	2	-0.0221127	39	1.3996	-4.88606e-05
2	1	0	1	1	56.0608	-0.998458	-0.998439	0.0519582	2	-0.0221022	39	1.5996	-5.18771e-05
2	1	0	1	1	56.2608	-0.993459	-0.993443	0.0552093	2	-0.0220911	39	1.7996	-5.48473e-05
2	1	0	1	1	56.4608	-0.98846	-0.988453	0.0599768	2	-0.0220792	39	1.9996	-5.92842e-05
2	1	0	1	1	56.6608	-0.983461	-0.983424	0.0662498	2	-0.0220661	39	2.1996	-6.51516e-05
2	1	0	1	1	56.8608	-0.978462	-0.978429	0.0704917	2	-0.0220521	39	2.3996	-6.89711e-05
2	1	0	0	1	57.0606	-0.973463	-0.973429	0.0766512	2	-0.022037	39	2.5994	-7.46145e-05
2	1	0	0	1	57.2606	-0.968463	-0.968444	0.0841745	2	-0.0220205	39	2.7994	-8.15183e-05
2	1	0	0	1	57.4606	-0.963464	-0.963443	0.0945841	2	-0.0220023	39	2.9994	-9.11264e-05
2	1	0	0	1	57.6606	-0.958465	-0.958446	0.103676	2	-0.021982	39	3.1994	-9.93675e-05
2	1	0	0	1	57.8606	-0.953466	-0.95346	0.114404	2	-0.0219598	39	3.3994	-0.00010908
2	1	0	0	1	58.0606	-0.948467	-0.94845	0.128035	2	-0.0219352	39	3.5994	-0.000121435
2	1	0	1	1	58.2604	-0.943468	-0.943464	0.141912	2	-0.0219078	39	3.7992	-0.000133888
2	1	0	1	1	58.4604	-0.938468	-0.938472	0.157653	2	-0.0218775	39	3.9992	-0.000147953
2	1	0	1	1	58.6604	-0.933469	-0.933483	0.174206	2	-0.0218439	39	4.1992	-0.000162618
2	1	0	1	1	58.8604	-0.92847	-0.928463	0.189916	2	-0.0218071	39	4.3992	-0.000176329
2	1	0	1	1	59.0604	-0.923471	-0.923457	0.205698	2	-0.0217672	39	4.5992	-0.000189953
2	1	0	1	1	59.2604	-0.918472	-0.918464	0.22177	2	-0.021724	39	4.7992	-0.000203688
2	1	0	0	1	59.4602	-0.913473	-0.913462	0.241778	2	-0.0216774	39	4.999	-0.000220855
2	1	0	0	1	59.6602	-0.908474	-0.908456	0.259756	2	-0.0216268	39	5.199	-0.000235977
2	1	0	0	1	59.8602	-0.903474	-0.903483	0.273456	2	-0.021573	39	5.399	-0.000247063
2	1	0	0	1	60.0602	-0.898475	-0.898474	0.286276	2	-0.0215167	39	5.599	-0.000257211
2	1	0	0	1	60.2602	-0.893476	-0.893475	0.300179	2	-0.0214576	39	5.799	-0.000268202
2	1	0	0	1	60.4602	-0.888477	-0.888464	0.310382	2	-0.021396	39	5.999	-0.000275763
2	1	0	1	1	60.66	-0.883478	-0.883489	0.317038	2	-0.0213329	39	6.1988	-0.000280099
2	1	0	1	1	60.86	-0.878479	-0.878451	0.319787	2	-0.0212687	39	6.3988	-0.000280917
2	1	0	1	1	61.06	-0.87348	-0.873479	0.316112	2	-0.0212048	39	6.5988	-0.000276117
2	1	0	1	1	61.26	-0.86848	-0.868455	0.311174	2	-0.0211416	39	6.7988	-0.000270241
2	1	0	1	1	61.46	-0.863481	-0.863458	0.30009	2	-0.0210801	39	6.9988	-0.000259115
2	1	0	1	1	61.66	-0.858482	-0.858466	0.291301	2	-0.0210206	39	7.1988	-0.000250072
2	1	0	0	1	61.8598	-0.853483	-0.853465	0.280603	2	-0.020963	39	7.3986	-0.000239485
2	1	0	0	1	62.0598	-0.848484	-0.848459	0.269677	2	-0.0209077	39	7.5986	-0.000228809
2	1	0	0	1	62.2598	-0.843485	-0.843465	0.259107	2	-0.0208545	39	7.7986	-0.000218547
2	1	0	0	1	62.4598	-0.838485	-0.83848	0.253604	2	-0.0208029	39	7.9986	-0.000212642
2	1	0	0	1	62.6598	-0.833486	-0.833453	0.248631	2	-0.0207523	39	8.1986	-0.000207222
2	1	0	1	1	62.8598	-0.828487	-0.828453	0.23672	2	-0.0207035	39	8.3986	-0.000196111
2	1	0	1	1	63.0596	-0.823488	-0.823457	0.229272	2	-0.0206567	39	8.5984	-0.000188796
2	1	0	1	1	63.2596	-0.818489	-0.818467	0.221169	2	-0.0206113	39	8.7984	-0.00018102
2	1	0	1	1	63.4596	-0.81349	-0.813455	0.214712	2	-0.0205673	39	8.9984	-0.000174659
2	1	0	1	1	63.6596	-0.808491	-0.808489	0.204299	2	-0.0205251	39	9.1984	-0.000165173
2	1	0	1	1	63.8596	-0.803491	-0.803493	0.195272	2	-0.0204849	39	9.3984	-0.0001569
2	1	0	1	1	64.0595	-0.798493	-0.798488	0.185719	2	-0.0204465	39	9.5983	-0.000148294
2	1	0	0	1	64.2594	-0.793493	-0.793475	0.176776	2	-0.02041	39	9.7982	-0.000140267
2	1	0	0	1	64.4594	-0.788494	-0.788477	0.169077	2	-0.0203751	39	9.9982	-0.000133313
2	1	0	0	1	64.6594	-0.783495	-0.783483	0.162978	2	-0.0203416	39	10.1982	-0.000127691
2	1	0	0	1	64.8594	-0.778496	-0.778482	0.156329	2	-0.0203094	39	10.3982	-0.000121699
2	1	0	0	1	65.0594	-0.773497	-0.773482	0.147773	2	-0.0202786	39	10.5982	-0.0001143
2	1	0	1	1	65.2592	-0.768497	-0.76851	0.14181	2	-0.0202494	39	10.798	-0.000108982
2	1	0	1	1	65.4592	-0.763498	-0.763506	0.136651	2	-0.0202213	39	10.998	-0.000104334
2	1	0	1	1	65.6592	-0.758499	-0.758492	0.129502	2	-0.0201943	39	11.198	-9.82266e-05
2	1	0	1	1	65.8592	-0.7535	-0.753488	0.123881	2	-0.0201687	39	11.398	-9.3343e-05
2	1	0	1	1	66.0592	-0.748501	-0.748496	0.119486	2	-0.0201441	39	11.598	-8.94351e-05
2	1	0	1	1	66.2592	-0.743502	-0.743494	0.115017	2	-0.0201204	39	11.798	-8.55141e-05
2	1	0	0	1	66.459	-0.738502	-0.738524	0.110757	2	-0.0200975	39	11.9978	-8.17968e-05
2	1	0	0	1	66.659	-0.733503	-0.733509	0.104863	2	-0.0200756	39	12.1978	-7.69181e-05
2	1	0	0	1	66.859	-0.728504	-0.728518	0.101109	2	-0.0200548	39	12.3978	-7.36597e-05
2	1	0	0	1	67.059	-0.723505	-0.723506	0.0978363	2	-0.0200346	39	12.5978	-7.07851e-05
2	1	0	0	1	67.259	-0.718506	-0.718524	0.0933439	2	-0.0200152	39	12.7978	-6.70699e-05
2	1	0	0	1	67.459	-0.713507	-0.71348	0.0897198	2	-0.0199967	39	12.9978	-6.40133e-05
2	1	0	1	1	67.6588	-0.708508	-0.708507	0.0863341	2	-0.0199788	39	13.1976	-6.11683e-05
2	1	0	1	1	67.8588	-0.703508	-0.703501	0.0825043	2	-0.0199617	39	13.3976	-5.80419e-05
2	1	0	1	1	68.0588	-0.698509	-0.698516	0.0792954	2	-0.0199452	39	13.5976	-5.53891e-05
2	1	0	1	1	68.2588	-0.69351	-0.693497	0.077091	2	-0.0199293	39	13.7976	-5.34624e-05
2	1	0	1	1	68.4588	-0.688511	-0.688525	0.0746149	2	-0.0199138	39	13.9976	-5.13742e-05
2	1	0	1	1	68.6588	-0.683512	-0.683503	0.0723313	2	-0.0198988	39	14.1976	-4.94387e-05
2	1	0	0	1	68.8586	-0.678513	-0.678519	0.0700372	2	-0.0198843	39	14.3974	-4.75216e-05
2	1	0	0	1	69.0586	-0.673514	-0.673517	0.0678398	2	-0.0198702	39	14.5974	-4.56913e-05
2	1	0	0	1	69.2586	-0.668514	-0.668505	0.0661464	2	-0.0198565	39	14.7974	-4.42192e-05
2	1	0	0	1	69.4586	-0.663515	-0.663528	0.0636613	2	-0.0198433	39	14.9974	-4.22411e-05
2	1	0	0	1	69.6586	-0.658516	-0.658517	0.061947	2	-0.0198304	39	15.1974	-4.07932e-05
2	1	0	0	1	69.8586	-0.653517	-0.653526	0.0604611	2	-0.0198179	39	15.3974	-3.95129e-05
2	1	0	1	1	70.0584	-0.648518	-0.648533	0.0590145	2	-0.0198057	39	15.5972	-3.82729e-05
2	1	0	1	1	70.2584	-0.643519	-0.643537	0.0569603	2	-0.0197938	39	15.7972	-3.66561e-05
2	1	0	1	1	70.4584	-0.63852	-0.638535	0.0551541	2	-0.0197823	39	15.9972	-3.52178e-05
2	1	0	1	1	70.6584	-0.63352	-0.633521	0.0533615	2	-0.0197711	39	16.1972	-3.38056e-05
2	1	0	1	1	70.8584	-0.628521	-0.628563	0.0523031	2	-0.0197603	39	16.3972	-3.28758e-05
2	1	0	1	1	71.0584	-0.623522	-0.623547	0.0507418	2	-0.0197497	39	16.5972	-3.16399e-05
2	1	0	0	1	71.2582	-0.618523	-0.618535	0.0499383	2	-0.0197394	39	16.797	-3.08886e-05
2	1	0	0	1	71.4582	-0.613524	-0.613546	0.0491742	2	-0.0197292	39	16.997	-3.01706e-05
2	1	0	0	1	71.6582	-0.608525	-0.608553	0.0467158	2	-0.0197194	39	17.197	-2.8429e-05
2	1	0	0	1	71.8582	-0.603525	-0.603553	0.0455145	2	-0.0197099	39	17.397	-2.74704e-05
2	1	0	0	1	72.0582	-0.598526	-0.598536	0.0445049	2	-0.0197006	39	17.597	-2.66378e-05
2	1	0	0	1	72.2582	-0.593527	-0.593531	0.0437594	2	-0.0196915	39	17.797	-2.59726e-05
2	1	0	1	1	72.458	-0.588528	-0.588529	0.0430432	2	-0.0196825	39	17.9968	-2.53321e-05
2	1	0	1	1	72.658	-0.583529	-0.583543	0.0420535	2	-0.0196737	39	18.1968	-2.454e-05
2	1	0	1	1	72.858	-0.57853	-0.578554	0.0411285	2	-0.0196651	39	18.3968	-2.37951e-05
2	1	0	1	1	73.058	-0.573531	-0.573546	0.0398378	2	-0.0196567	39	18.5968	-2.28488e-05
2	1	0	1	1	73.258	-0.568531	-0.568555	0.0391835	2	-0.0196485	39	18.7968	-2.2278e-05
2	1	0	1	1	73.4579	-0.563531	-0.563546	0.0384718	2	-0.0196405	39	18.9967	-2.16806e-05
2	1	0	0	1	73.6578	-0.558533	-0.558549	0.0379507	2	-0.0196326	39	19.1966	-2.11973e-05
2	1	0	0	1	73.8578	-0.553534	-0.553562	0.0371936	2	-0.0196248	39	19.3966	-2.0589e-05
2	1	0	0	1	74.0578	-0.548535	-0.548531	0.0365073	2	-0.0196171	39	19.5966	-2.00253e-05
2	1	0	0	1	74.2578	-0.543536	-0.543544	0.0365686	2	-0.0196095	39	19.7966	-1.98767e-05
2	1	0	0	1	74.4578	-0.538537	-0.538546	0.0355587	2	-0.019602	39	19.9966	-1.915e-05
2	1	0	1	1	74.6576	-0.533537	-0.53355	0.03516	2	-0.0195947	39	20.1964	-1.87596e-05
2	1	0	1	1	74.8576	-0.528538	-0.528543	0.0343865	2	-0.0195875	39	20.3964	-1.81748e-05
2	1	0	1	1	75.0576	-0.523539	-0.523543	0.0340207	2	-0.0195804	39	20.5964	-1.78113e-05
2	1	0	1	1	75.2576	-0.51854	-0.518543	0.0334024	2	-0.0195734	39	20.7964	-1.73206e-05
2	1	0	1	1	75.4576	-0.513541	-0.51354	0.0333909	2	-0.0195665	39	20.9964	-1.71475e-05
2	1	0	1	1	75.6576	-0.508542	-0.508541	0.0332226	2	-0.0195595	39	21.1964	-1.6895e-05
2	1	0	0	1	75.8574	-0.503543	-0.503546	0.0325728	2	-0.0195527	39	21.3962	-1.64019e-05
2	1	0	0	1	76.0574	-0.498543	-0.49856	0.0322794	2	-0.0195459	39	21.5962	-1.60932e-05
2	1	0	0	1	76.2574	-0.493544	-0.493534	0.0319062	2	-0.0195392	39	21.7962	-1.57468e-05
2	1	0	0	1	76.4574	-0.488545	-0.48857	0.0314138	2	-0.0195326	39	21.9962	-1.53479e-05
2	1	0	0	1	76.6574	-0.483546	-0.483573	0.0314475	2	-0.0195261	39	22.1962	-1.52072e-05
2	1	0	0	1	76.8574	-0.478547	-0.478549	0.0315565	2	-0.0195195	39	22.3962	-1.51014e-05
2	1	0	1	1	77.0572	-0.473548	-0.473566	0.0311606	2	-0.019513	39	22.596	-1.47566e-05
2	1	0	1	1	77.2572	-0.468548	-0.468546	0.0309813	2	-0.0195065	39	22.796	-1.45161e-05
2	1	0	1	1	77.4572	-0.463549	-0.463553	0.0306723	2	-0.0195001	39	22.996	-1.42182e-05
2	1	0	1	1	77.6572	-0.45855	-0.458565	0.0309899	2	-0.0194937	39	23.196	-1.42109e-05
2	1	0	1	1	77.8572	-0.453551	-0.453584	0.0308014	2	-0.0194872	39	23.396	-1.3971e-05
2	1	0	1	1	78.0572	-0.448552	-0.448569	0.0304469	2	-0.0194808	39	23.596	-1.36575e-05
2	1	0	0	1	78.257	-0.443553	-0.443588	0.0303918	2	-0.0194745	39	23.7958	-1.34815e-05
2	1	0	0	1	78.457	-0.438554	-0.438564	0.0305293	2	-0.0194682	39	23.9958	-1.3389e-05
2	1	0	0	1	78.657	-0.433554	-0.433566	0.0304809	2	-0.0194618	39	24.1958	-1.32155e-05
2	1	0	0	1	78.857	-0.428555	-0.428569	0.0300512	2	-0.0194554	39	24.3958	-1.2879e-05
2	1	0	0	1	79.057	-0.423556	-0.423574	0.0302501	2	-0.0194492	39	24.5958	-1.28132e-05
2	1	0	0	1	79.257	-0.418557	-0.418567	0.0298909	2	-0.0194429	39	24.7958	-1.25113e-05
2	1	0	1	1	79.4568	-0.413558	-0.413572	0.0298771	2	-0.0194366	39	24.9956	-1.23563e-05
2	1	0	1	1	79.6568	-0.408559	-0.408563	0.0300459	2	-0.0194304	39	25.1956	-1.22757e-05
2	1	0	1	1	79.8568	-0.40356	-0.40357	0.0301333	2	-0.0194241	39	25.3956	-1.21609e-05
2	1	0	1	1	80.0568	-0.39856	-0.398564	0.0299776	2	-0.0194179	39	25.5956	-1.1948e-05
2	1	0	1	1	80.2568	-0.393561	-0.393555	0.0298044	2	-0.0194116	39	25.7956	-1.17297e-05
2	1	0	1	1	80.4568	-0.388562	-0.388538	0.0299052	2	-0.0194054	39	25.9956	-1.16193e-05
2	1	0	0	1	80.6566	-0.383563	-0.383567	0.0300072	2	-0.0193992	39	26.1954	-1.15098e-05
2	1	0	0	1	80.8566	-0.378564	-0.37855	0.030107	2	-0.0193929	39	26.3954	-1.1397e-05
2	1	0	0	1	81.0566	-0.373565	-0.373566	0.0303368	2	-0.0193866	39	26.5954	-1.13328e-05
2	1	0	0	1	81.2566	-0.368565	-0.368567	0.0304288	2	-0.0193803	39	26.7954	-1.12151e-05
2	1	0	0	1	81.4566	-0.363566	-0.363579	0.0305003	2	-0.019374	39	26.9954	-1.10892e-05
2	1	0	1	1	81.6565	-0.358569	-0.358566	0.0311214	2	-0.0193676	39	27.1953	-1.11591e-05
2	1	0	1	1	81.8564	-0.353568	-0.353588	0.0310047	2	-0.0193611	39	27.3952	-1.09629e-05
2	1	0	1	1	82.0564	-0.348569	-0.348583	0.0311394	2	-0.0193546	39	27.5952	-1.08546e-05
2	1	0	1	1	82.2564	-0.34357	-0.343545	0.0309111	2	-0.0193482	39	27.7952	-1.06194e-05
2	1	0	1	1	82.4564	-0.338571	-0.338574	0.0313999	2	-0.0193417	39	27.9952	-1.06312e-05
2	1	0	1	1	82.6564	-0.333571	-0.33359	0.0314776	2	-0.0193351	39	28.1952	-1.05006e-05
2	1	0	1	1	82.8563	-0.328571	-0.328597	0.0313235	2	-0.0193286	39	28.3951	-1.02928e-05
2	1	0	0	1	83.0562	-0.323573	-0.323613	0.0311952	2	-0.0193221	39	28.595	-1.00952e-05
2	1	0	0	1	83.2562	-0.318574	-0.318611	0.031647	2	-0.0193156	39	28.795	-1.00831e-05
2	1	0	0	1	83.4562	-0.313575	-0.313611	0.0317899	2	-0.019309	39	28.995	-9.96967e-06
2	1	0	0	1	83.6562	-0.308576	-0.308597	0.0319546	2	-0.0193024	39	29.195	-9.86111e-06
2	1	0	0	1	83.8562	-0.303577	-0.303607	0.032288	2	-0.0192957	39	29.395	-9.80285e-06
2	1	0	0	1	84.0206	-0.300577	-0.300598	0.0308254	2	-0.0192903	39	29.5594	-9.26606e-06
2	1	0	0	1	84.2206	-0.305576	-0.305585	0.0281568	2	-0.0192847	39	29.7594	-8.6043e-06
2	1	0	0	1	84.4206	-0.310575	-0.310585	0.0264434	2	-0.0192795	39	29.9594	-8.21292e-06
2	1	0	0	1	84.6206	-0.315574	-0.315575	0.024672	2	-0.0192746	39	30.1594	-7.78587e-06
2	1	0	0	1	84.8206	-0.320574	-0.320583	0.0233314	2	-0.0192701	39	30.3594	-7.47965e-06
2	1	0	0	1	85.0206	-0.325573	-0.325571	0.0219554	2	-0.0192658	39	30.5594	-7.14802e-06
2	1	0	1	1	85.2204	-0.330572	-0.330584	0.0210589	2	-0.0192618	39	30.7592	-6.96175e-06
2	1	0	1	1	85.4204	-0.335571	-0.335584	0.0198522	2	-0.019258	39	30.9592	-6.6621e-06
2	1	0	1	1	85.6204	-0.34057	-0.34056	0.018769	2	-0.0192544	39	31.1592	-6.39196e-06
2	1	0	1	1	85.8204	-0.345569	-0.345576	0.0177646	2	-0.019251	39	31.3592	-6.13901e-06
2	1	0	1	1	86.0204	-0.350569	-0.350573	0.0168059	2	-0.0192478	39	31.5592	-5.89169e-06
2	1	0	1	1	86.2204	-0.355568	-0.355574	0.0161333	2	-0.0192447	39	31.7592	-5.73659e-06
2	1	0	0	1	86.4202	-0.360567	-0.360567	0.0154892	2	-0.0192418	39	31.959	-5.5849e-06
2	1	0	0	1	86.6202	-0.365566	-0.365561	0.0147758	2	-0.019239	39	32.159	-5.40146e-06
2	1	0	0	1	86.8202	-0.370565	-0.37057	0.0141883	2	-0.0192364	39	32.359	-5.25774e-06
2	1	0	0	1	87.0202	-0.375564	-0.375577	0.0138775	2	-0.0192339	39	32.559	-5.21206e-06
2	1	0	0	1	87.2202	-0.380563	-0.38057	0.0131247	2	-0.0192314	39	32.759	-4.99485e-06
2	1	0	0	1	87.4202	-0.385563	-0.385571	0.0126796	2	-0.0192291	39	32.959	-4.88889e-06
2	1	0	1	1	87.62	-0.390562	-0.39059	0.0120253	2	-0.0192269	39	33.1588	-4.69697e-06
2	1	0	1	1	87.82	-0.395561	-0.39558	0.0115679	2	-0.0192247	39	33.3588	-4.57604e-06
2	1	0	1	1	88.02	-0.40056	-0.400573	0.0112595	2	-0.0192227	39	33.5588	-4.51027e-06
2	1	0	1	1	88.22	-0.405559	-0.40559	0.0107887	2	-0.0192208	39	33.7588	-4.37579e-06
2	1	0	1	1	88.42	-0.410558	-0.410598	0.0103503	2	-0.0192189	39	33.9588	-4.24981e-06
2	1	0	1	1	88.62	-0.415557	-0.415561	0.00991043	2	-0.0192172	39	34.1588	-4.11838e-06
2	1	0	0	1	88.8198	-0.420557	-0.420589	0.0094681	2	-0.0192155	39	34.3586	-3.98218e-06
2	1	0	0	1	89.0198	-0.425556	-0.425577	0.00907391	2	-0.0192139	39	34.5586	-3.86165e-06
2	1	0	0	1	89.2198	-0.430555	-0.430576	0.00876509	2	-0.0192123	39	34.7586	-3.77403e-06
2	1	0	0	1	89.4198	-0.435554	-0.435547	0.00851522	2	-0.0192108	39	34.9586	-3.70878e-06
2	1	0	0	1	89.6198	-0.440553	-0.440544	0.00807244	2	-0.0192094	39	35.1586	-3.55626e-06
2	1	0	0	1	89.8198	-0.445552	-0.445559	0.00782762	2	-0.0192081	39	35.3586	-3.48767e-06
2	1	0	1	1	90.0196	-0.450551	-0.450566	0.00746225	2	-0.0192068	39	35.5584	-3.36224e-06
2	1	0	1	1	90.2196	-0.455551	-0.455572	0.00709806	2	-0.0192056	39	35.7584	-3.23368e-06
2	1	0	1	1	90.4196	-0.46055	-0.460559	0.00679018	2	-0.0192045	39	35.9584	-3.12728e-06
2	1	0	1	1	90.6196	-0.465549	-0.465551	0.0065666	2	-0.0192034	39	36.1584	-3.05709e-06
2	1	0	1	1	90.8196	-0.470548	-0.470545	0.00641023	2	-0.0192024	39	36.3584	-3.0163e-06
2	1	0	1	1	91.0195	-0.475547	-0.47555	0.00596901	2	-0.0192014	39	36.5583	-2.83856e-06
2	1	0	0	1	91.2194	-0.480546	-0.480526	0.0058098	2	-0.0192005	39	36.7582	-2.79176e-06
2	1	0	0	1	91.4194	-0.485546	-0.485564	0.00553897	2	-0.0191996	39	36.9582	-2.68953e-06
2	1	0	0	1	91.6194	-0.490545	-0.490544	0.00552518	2	-0.0191988	39	37.1582	-2.71034e-06
2	1	0	0	1	91.8194	-0.495544	-0.495545	0.00511728	2	-0.019198	39	37.3582	-2.53584e-06
2	1	0	0	1	92.0194	-0.500543	-0.50056	0.00507116	2	-0.0191972	39	37.5582	-2.53842e-06
2	1	0	1	1	92.2192	-0.505542	-0.505553	0.00459508	2	-0.0191965	39	37.758	-2.32305e-06
2	1	0	1	1	92.4192	-0.510541	-0.510523	0.00463123	2	-0.0191958	39	37.958	-2.36435e-06
2	0	0	1	1	92.6192	-0.51554	-0.515536	0.00430166	2	-0.0191952	39	38.158	-2.21766e-06
2	1	0	1	1	92.8192	-0.52054	-0.520544	0.00418537	2	-0.0191946	39	38.358	-2.17867e-06
2	0	0	1	1	93.0192	-0.525539	-0.525556	0.00393666	2	-0.0191941	39	38.558	-2.06894e-06
2	1	0	1	1	93.2192	-0.530538	-0.530558	0.00379728	2	-0.0191936	39	38.758	-2.01468e-06
2	1	0	0	1	93.419	-0.535537	-0.535537	0.00360997	2	-0.0191931	39	38.9578	-1.93327e-06
2	1	0	0	1	93.619	-0.540536	-0.540555	0.00333522	2	-0.0191927	39	39.1578	-1.80287e-06
2	1	0	0	1	93.819	-0.545535	-0.545532	0.00309454	2	-0.0191923	39	39.3578	-1.68817e-06
2	1	0	0	1	94.019	-0.550535	-0.550537	0.00322274	2	-0.0191919	39	39.5578	-1.77424e-06
2	1	0	0	1	94.219	-0.555534	-0.555519	0.00305813	2	-0.0191916	39	39.7578	-1.69885e-06
2	1	0	0	1	94.419	-0.560533	-0.560548	0.00275149	2	-0.0191913	39	39.9578	-1.54234e-06
2	1	0	1	1	94.6188	-0.565532	-0.565543	0.00261452	2	-0.019191	39	40.1576	-1.47862e-06
2	1	0	1	1	94.8188	-0.570531	-0.570551	0.00242798	2	-0.0191907	39	40.3576	-1.38528e-06
2	1	0	1	1	95.0188	-0.57553	-0.575535	0.00237068	2	-0.0191905	39	40.5576	-1.36441e-06
2	1	0	1	1	95.2188	-0.580529	-0.58054	0.0022731	2	-0.0191903	39	40.7576	-1.31962e-06
2	1	0	1	1	95.4188	-0.585529	-0.585552	0.00218652	2	-0.0191902	39	40.9576	-1.28032e-06
2	1	0	1	1	95.6188	-0.590528	-0.590527	0.00186932	2	-0.01919	39	41.1576	-1.10388e-06
2	1	0	0	1	95.8186	-0.595527	-0.595535	0.00191726	2	-0.0191899	39	41.3574	-1.14179e-06
2	0	0	0	1	96.0186	-0.600526	-0.60053	0.00178716	2	-0.0191898	39	41.5574	-1.07324e-06
2	1	0	0	1	96.2186	-0.605525	-0.605534	0.00170518	2	-0.0191897	39	41.7574	-1.03254e-06
2	0	0	0	1	96.4186	-0.610524	-0.610536	0.00154425	2	-0.0191897	39	0.000000000000000E+000	-9.42818e-07
2	1	0	0	1	96.6186	-0.615523	-0.615544	0.001629	2	-0.0191897	39	0.000000000000000E+000	-1.00272e-06
2	0	0	0	1	96.8186	-0.620523	-0.620551	0.00127062	2	-0.0191897	39	0.000000000000000E+000	-7.88483e-07
2	0	0	1	1	97.0184	-0.625522	-0.625534	0.00121297	2	-0.0191897	39	0.000000000000000E+000	-7.58754e-07
2	0	0	1	1	97.2184	-0.630521	-0.630529	0.00133807	2	-0.0191897	39	0.000000000000000E+000	-8.43693e-07
2	0	0	1	1	97.4184	-0.63552	-0.635523	0.000956049	2	-0.0191898	39	0.2	-6.07592e-07
2	0	0	1	1	97.6184	-0.640519	-0.640548	0.00098529	2	-0.0191899	39	0.4	-6.31126e-07
2	1	0	1	1	97.8184	-0.645518	-0.645531	0.000978965	2	-0.01919	39	0.6	-6.31953e-07
2	0	0	1	1	98.0184	-0.650518	-0.65053	0.000816417	2	-0.0191901	39	0.8	-5.31103e-07
2	0	0	0	1	98.2182	-0.655517	-0.655548	0.000756921	2	-0.0191902	39	0.9998	-4.96198e-07
2	0	0	0	1	98.4182	-0.660516	-0.660513	0.000760208	2	-0.0191903	39	1.1998	-5.02127e-07
2	1	0	0	1	98.6182	-0.665515	-0.665514	0.00065216	2	-0.0191905	39	1.3998	-4.34022e-07
2	0	0	0	1	98.8182	-0.670514	-0.670527	0.000475856	2	-0.0191907	39	1.5998	-3.19074e-07
2	0	0	0	1	99.0182	-0.675513	-0.675527	0.000398689	2	-0.0191909	39	1.7998	-2.69325e-07
2	0	0	1	1	99.2182	-0.680513	-0.680512	0.000371803	2	-0.0191911	39	1.9998	-2.53017e-07
2	0	0	1	1	99.418	-0.685512	-0.685521	0.000296857	2	-0.0191913	39	2.1996	-2.03502e-07
2	0	0	1	1	99.618	-0.690511	-0.690525	0.000265475	2	-0.0191916	39	2.3996	-1.83317e-07
2	0	0	1	1	99.818	-0.69551	-0.695516	-3.46162e-05	2	-0.0191918	39	2.5996	2.40761e-08
2	0	0	1	1	100.018	-0.700509	-0.700505	7.14259e-06	2	-0.0191921	39	2.7996	-5.00342e-09
2	0	0	1	1	100.218	-0.705508	-0.705505	3.89601e-05	2	-0.0191924	39	2.9996	-2.74865e-08
2	0	0	1	1	100.418	-0.710509	-0.71051	2.05211e-05	2	-0.0191927	39	3.1995	-1.45805e-08
2	0	0	0	1	100.618	-0.715506	-0.715518	-0.000110362	2	-0.019193	39	3.3994	7.89661e-08
2	0	0	0	1	100.818	-0.720506	-0.720521	-0.000180157	2	-0.0191933	39	3.5994	1.29807e-07
2	0	0	0	1	101.018	-0.725505	-0.725512	-0.000293499	2	-0.0191937	39	3.7994	2.12937e-07
2	0	0	0	1	101.218	-0.730504	-0.730517	-0.000238055	2	-0.019194	39	3.9994	1.73903e-07
2	0	0	0	1	101.418	-0.735503	-0.735525	-0.000468112	2	-0.0191944	39	4.1994	3.44308e-07
2	0	0	1	1	101.618	-0.740502	-0.740522	-0.000138702	2	-0.0191947	39	4.3992	1.02712e-07
2	0	0	1	1	101.818	-0.745501	-0.745501	-0.000169357	2	-0.0191951	39	4.5992	1.26256e-07
2	1	0	0	1	101.911	-0.747851	-0.747827	0.00138035	2	-0.0191952	39	4.693	-1.03226e-06