File: Fig 3/Fig 3_RRDE-np-Fe3O4_25mvs_disk.mpt
mode	ox/red	error	control changes	Ns changes	counter inc.	Ns	time/s	control/V	Ewe/V	<I>/mA	dQ/C	(Q-Qo)/C	I Range	Q charge/discharge/mA.h	half cycle	Energy charge/W.h	Energy discharge/W.h	Capacitance charge/µF	Capacitance discharge/µF	step time/s	Q discharge/mA.h	Q charge/mA.h	Capacity/mA.h	Efficiency/%	cycle number	P/W
2	1	1	0	0	0	0	0.1	-0.300024	-0.300249	0.0832208	8.32208e-06	8.32208e-06	41	2.31169e-06	0	6.94082e-10	0.000000000000000E+000	0.000000000000000E+000	0.000000000000000E+000	0.1	0.000000000000000E+000	2.31169e-06	2.31169e-06	0.0000000E+000	0.000000000000000E+000	-2.4987e-05
2	1	0	0	0	0	0	0.9	-0.300024	-0.300214	0.00896421	2.20327e-05	2.20327e-05	41	6.12019e-06	0	1.83748e-09	0.000000000000000E+000	640636	0.000000000000000E+000	0.9	0.000000000000000E+000	6.12019e-06	6.12019e-06	0.0000000E+000	0.000000000000000E+000	-2.69119e-06
2	1	0	0	0	0	0	1.7	-0.300024	-0.300245	0.00325829	2.60502e-05	2.60502e-05	41	7.23617e-06	0	2.1725e-09	0.000000000000000E+000	6.8289e+06	0.000000000000000E+000	1.7	0.000000000000000E+000	7.23617e-06	7.23617e-06	0.0000000E+000	0.000000000000000E+000	-9.78284e-07
2	1	0	0	0	0	0	2.5	-0.300024	-0.30023	0.00112823	2.75496e-05	2.75496e-05	41	7.65266e-06	0	2.29754e-09	0.000000000000000E+000	1.44214e+06	0.000000000000000E+000	2.5	0.000000000000000E+000	7.65266e-06	7.65266e-06	0.0000000E+000	0.000000000000000E+000	-3.38729e-07
2	1	0	0	0	0	0	3.3	-0.300024	-0.300199	0.000202461	2.79865e-05	2.79865e-05	41	7.77403e-06	0	2.33397e-09	0.000000000000000E+000	563330	0.000000000000000E+000	3.3	0.000000000000000E+000	7.77403e-06	7.77403e-06	0.0000000E+000	0.000000000000000E+000	-6.07785e-08
2	0	0	0	0	0	0	4.1	-0.300024	-0.300249	-0.000426314	2.78506e-05	2.78506e-05	41	-4.13776e-08	1	2.33506e-09	1.24224e-11	1.04622e+06	3898.79	0.5	4.13776e-08	0.000000000000000E+000	4.13776e-08	0.0000000E+000	0.000000000000000E+000	1.28e-07
2	0	0	0	0	0	0	4.9	-0.300024	-0.300191	-0.000841095	2.73075e-05	2.73075e-05	41	-1.92221e-07	1	2.33506e-09	5.77082e-11	1.04622e+06	36167.5	1.3	1.92221e-07	0.000000000000000E+000	1.92221e-07	0.0000000E+000	0.000000000000000E+000	2.5249e-07
2	0	0	0	0	0	0	5.7	-0.300024	-0.300161	-0.00120104	2.64719e-05	2.64719e-05	41	-4.24333e-07	1	2.33506e-09	1.27391e-10	1.04622e+06	30730.1	2.1	4.24333e-07	0.000000000000000E+000	4.24333e-07	0.0000000E+000	0.000000000000000E+000	3.60505e-07
2	0	0	0	0	0	0	6.5	-0.300024	-0.300195	-0.00140079	2.54254e-05	2.54254e-05	41	-7.15049e-07	1	2.33506e-09	2.14673e-10	1.04622e+06	168372	2.9	7.15049e-07	0.000000000000000E+000	7.15049e-07	0.0000000E+000	0.000000000000000E+000	4.20511e-07
2	0	0	0	0	0	0	7.3	-0.300024	-0.300214	-0.00144287	2.4266e-05	2.4266e-05	41	-1.03711e-06	1	2.33506e-09	3.11359e-10	1.04622e+06	978738	3.7	1.03711e-06	0.000000000000000E+000	1.03711e-06	0.0000000E+000	0.000000000000000E+000	4.3317e-07
2	0	0	0	0	0	0	8.1	-0.300024	-0.300218	-0.00157884	2.30388e-05	2.30388e-05	41	-1.37798e-06	1	2.33506e-09	4.13693e-10	1.04622e+06	650214	4.5	1.37798e-06	0.000000000000000E+000	1.37798e-06	0.0000000E+000	0.000000000000000E+000	4.73998e-07
2	0	0	0	0	0	0	8.9	-0.300024	-0.300264	-0.00172413	2.17034e-05	2.17034e-05	41	-1.74892e-06	1	2.33506e-09	5.25058e-10	1.04622e+06	117695	5.3	1.74892e-06	0.000000000000000E+000	1.74892e-06	0.0000000E+000	0.000000000000000E+000	5.17695e-07
2	0	0	0	0	0	0	9.7	-0.300024	-0.300241	-0.0017896	2.03028e-05	2.03028e-05	41	-2.13799e-06	1	2.33506e-09	6.4186e-10	1.04622e+06	251716	6.1	2.13799e-06	0.000000000000000E+000	2.13799e-06	0.0000000E+000	0.000000000000000E+000	5.37312e-07
2	0	0	0	0	0	0	10.5	-0.300024	-0.300234	-0.00177679	1.88402e-05	1.88402e-05	41	-2.54426e-06	1	2.33506e-09	7.63832e-10	1.04622e+06	399657	6.9	2.54426e-06	0.000000000000000E+000	2.54426e-06	0.0000000E+000	0.000000000000000E+000	5.33452e-07
2	0	0	0	0	0	0	11.3	-0.300024	-0.300195	-0.00178302	1.73767e-05	1.73767e-05	41	-2.95078e-06	1	2.33506e-09	8.85868e-10	1.04622e+06	694819	7.7	2.95078e-06	0.000000000000000E+000	2.95078e-06	0.0000000E+000	0.000000000000000E+000	5.35255e-07
2	0	0	0	0	0	0	12.1	-0.300024	-0.300214	-0.0018413	1.59237e-05	1.59237e-05	41	-3.35439e-06	1	2.33506e-09	1.00704e-09	1.04622e+06	3.1656e+06	8.5	3.35439e-06	0.000000000000000E+000	3.35439e-06	0.0000000E+000	0.000000000000000E+000	5.52784e-07
2	0	0	0	0	0	0	12.9	-0.300024	-0.300226	-0.00186192	1.44313e-05	1.44313e-05	41	-3.76895e-06	1	2.33506e-09	1.1315e-09	1.04622e+06	887473	9.3	3.76895e-06	0.000000000000000E+000	3.76895e-06	0.0000000E+000	0.000000000000000E+000	5.58997e-07
2	0	0	0	0	0	0	13.7	-0.300024	-0.300299	-0.00190942	1.28901e-05	1.28901e-05	41	-4.19707e-06	1	2.33506e-09	1.26003e-09	1.04622e+06	171861	10.1	4.19707e-06	0.000000000000000E+000	4.19707e-06	0.0000000E+000	0.000000000000000E+000	5.73397e-07
2	0	0	0	0	0	0	14.5	-0.300024	-0.300245	-0.00188182	1.13461e-05	1.13461e-05	41	-4.62596e-06	1	2.33506e-09	1.38878e-09	1.04622e+06	484227	10.9	4.62596e-06	0.000000000000000E+000	4.62596e-06	0.0000000E+000	0.000000000000000E+000	5.65006e-07
2	0	0	0	0	0	0	15.3	-0.300024	-0.30018	-0.00184114	9.84934e-06	9.84934e-06	41	-5.04172e-06	1	2.33506e-09	1.51359e-09	1.04622e+06	593008	11.7	5.04172e-06	0.000000000000000E+000	5.04172e-06	0.0000000E+000	0.000000000000000E+000	5.52674e-07
2	0	0	0	0	0	0	16.1	-0.300024	-0.300191	-0.00195211	8.32987e-06	8.32987e-06	41	-5.4638e-06	1	2.33506e-09	1.6403e-09	1.04622e+06	1.02804e+06	12.5	5.4638e-06	0.000000000000000E+000	5.4638e-06	0.0000000E+000	0.000000000000000E+000	5.86007e-07
2	0	0	0	0	0	0	16.9	-0.300024	-0.300272	-0.00191995	6.77281e-06	6.77281e-06	41	-5.89632e-06	1	2.33506e-09	1.77015e-09	1.04622e+06	347101	13.3	5.89632e-06	0.000000000000000E+000	5.89632e-06	0.0000000E+000	0.000000000000000E+000	5.76508e-07
2	0	0	0	0	0	0	17.7	-0.300024	-0.300214	-0.00198996	5.21038e-06	5.21038e-06	41	-6.33032e-06	1	2.33506e-09	1.90043e-09	1.04622e+06	5.97404e+06	14.1	6.33032e-06	0.000000000000000E+000	6.33032e-06	0.0000000E+000	0.000000000000000E+000	5.97414e-07
2	0	0	0	0	0	0	18.5	-0.300024	-0.300195	-0.00201391	3.61718e-06	3.61718e-06	41	-6.77288e-06	1	2.33506e-09	2.0333e-09	1.04622e+06	1.59481e+06	14.9	6.77288e-06	0.000000000000000E+000	6.77288e-06	0.0000000E+000	0.000000000000000E+000	6.04566e-07
2	0	0	0	0	0	0	19.3	-0.300024	-0.300172	-0.00193238	2.07711e-06	2.07711e-06	41	-7.20068e-06	1	2.33506e-09	2.16172e-09	1.04622e+06	677952	15.7	7.20068e-06	0.000000000000000E+000	7.20068e-06	0.0000000E+000	0.000000000000000E+000	5.80047e-07
2	0	0	0	0	0	0	20.1	-0.300024	-0.30018	-0.00194866	4.96635e-07	4.96635e-07	41	-7.6397e-06	1	2.33506e-09	2.29352e-09	1.04622e+06	898583	16.5	7.6397e-06	0.000000000000000E+000	7.6397e-06	0.0000000E+000	0.000000000000000E+000	5.8495e-07
2	0	0	0	0	0	0	20.9	-0.300024	-0.300184	-0.00198158	-1.04897e-06	-1.04897e-06	41	-8.06903e-06	1	2.33506e-09	2.42241e-09	1.04622e+06	1.08421e+06	17.3	8.06903e-06	0.000000000000000E+000	8.06903e-06	0.0000000E+000	0.000000000000000E+000	5.94838e-07
2	0	0	0	0	0	0	21.7	-0.300024	-0.300184	-0.00201073	-2.65165e-06	-2.65165e-06	41	-8.51422e-06	1	2.33506e-09	2.55606e-09	1.04622e+06	1.1453e+06	18.1	8.51422e-06	0.000000000000000E+000	8.51422e-06	0.0000000E+000	0.000000000000000E+000	6.03588e-07
2	0	0	0	0	0	0	22.5	-0.300024	-0.300211	-0.00187497	-4.206e-06	-4.206e-06	41	-8.94599e-06	1	2.33506e-09	2.68568e-09	1.04622e+06	0.000000000000000E+000	18.9	8.94599e-06	0.000000000000000E+000	8.94599e-06	0.0000000E+000	0.000000000000000E+000	5.62885e-07
2	0	0	0	0	0	0	23.3	-0.300024	-0.300195	-0.00187592	-5.72438e-06	-5.72438e-06	41	-9.36776e-06	1	2.33506e-09	2.81231e-09	1.04622e+06	2.20153e+06	19.7	9.36776e-06	0.000000000000000E+000	9.36776e-06	0.0000000E+000	0.000000000000000E+000	5.63143e-07
2	0	0	0	0	0	0	24.1	-0.300024	-0.300172	-0.00185053	-7.2096e-06	-7.2096e-06	41	-9.78032e-06	1	2.33506e-09	2.93615e-09	1.04622e+06	920828	20.5	9.78032e-06	0.000000000000000E+000	9.78032e-06	0.0000000E+000	0.000000000000000E+000	5.55479e-07
2	0	0	0	0	0	0	24.9	-0.300024	-0.300234	-0.00167498	-8.60832e-06	-8.60832e-06	41	-1.01689e-05	1	2.33506e-09	3.05279e-09	1.04622e+06	1.59527e+06	21.3	1.01689e-05	0.000000000000000E+000	1.01689e-05	0.0000000E+000	0.000000000000000E+000	5.02885e-07
2	0	0	0	0	0	0	25.7	-0.300024	-0.300218	-0.00152389	-9.88928e-06	-9.88928e-06	41	-1.05247e-05	1	2.33506e-09	3.1596e-09	1.04622e+06	4.96616e+06	22.1	1.05247e-05	0.000000000000000E+000	1.05247e-05	0.0000000E+000	0.000000000000000E+000	4.575e-07
2	0	0	0	0	0	0	26.5	-0.300024	-0.300176	-0.00138034	-1.10265e-05	-1.10265e-05	41	-1.08406e-05	1	2.33506e-09	3.25444e-09	1.04622e+06	1.13376e+06	22.9	1.08406e-05	0.000000000000000E+000	1.08406e-05	0.0000000E+000	0.000000000000000E+000	4.14345e-07
2	0	0	0	0	0	0	27.3	-0.300024	-0.300199	-0.00125129	-1.20738e-05	-1.20738e-05	41	-1.11315e-05	1	2.33506e-09	3.34177e-09	1.04622e+06	3.49257e+06	23.7	1.11315e-05	0.000000000000000E+000	1.11315e-05	0.0000000E+000	0.000000000000000E+000	3.75637e-07
2	0	0	0	0	0	0	28.1	-0.300024	-0.300226	-0.00114934	-1.3038e-05	-1.3038e-05	41	-1.13993e-05	1	2.33506e-09	3.42217e-09	1.04622e+06	2.68419e+06	24.5	1.13993e-05	0.000000000000000E+000	1.13993e-05	0.0000000E+000	0.000000000000000E+000	3.45062e-07
2	0	0	0	0	0	0	28.9	-0.300024	-0.300161	-0.000795738	-1.38247e-05	-1.38247e-05	41	-1.16178e-05	1	2.33506e-09	3.48777e-09	1.04622e+06	841359	25.3	1.16178e-05	0.000000000000000E+000	1.16178e-05	0.0000000E+000	0.000000000000000E+000	2.38849e-07
2	1	0	0	0	0	0	29.7	-0.300024	-0.300157	0.000283143	-1.40433e-05	-1.40433e-05	41	1.04302e-08	2	3.13058e-12	0.000000000000000E+000	982.019	0.000000000000000E+000	0.1	0.000000000000000E+000	1.04302e-08	1.04302e-08	0.0000000E+000	1	-8.49875e-08
2	1	0	0	0	0	0	30.5	-0.300024	-0.300222	0.00281666	-1.27888e-05	-1.27888e-05	41	3.58896e-07	2	1.07744e-10	0.000000000000000E+000	12515.3	0.000000000000000E+000	0.9	0.000000000000000E+000	3.58896e-07	3.58896e-07	0.0000000E+000	1	-8.45622e-07
2	1	0	0	0	0	0	31.3	-0.300024	-0.30023	0.00723096	-8.64792e-06	-8.64792e-06	41	1.50914e-06	2	4.53046e-10	0.000000000000000E+000	48991.7	0.000000000000000E+000	1.7	0.000000000000000E+000	1.50914e-06	1.50914e-06	0.0000000E+000	1	-2.17095e-06
2	1	0	0	0	0	0	32.1	-0.300024	-0.300226	0.0122452	-6.13336e-07	-6.13336e-07	41	3.74097e-06	2	1.12302e-09	0.000000000000000E+000	125771	0.000000000000000E+000	2.5	0.000000000000000E+000	3.74097e-06	3.74097e-06	0.0000000E+000	1	-3.67633e-06
2	1	0	0	0	0	0	32.9	-0.300024	-0.300211	0.016162	1.11459e-05	1.11459e-05	41	7.00743e-06	2	2.10363e-09	0.000000000000000E+000	274827	0.000000000000000E+000	3.3	0.000000000000000E+000	7.00743e-06	7.00743e-06	0.0000000E+000	1	-4.852e-06
2	1	0	0	0	0	0	33.7	-0.300024	-0.300191	0.0186243	2.53915e-05	2.53915e-05	41	1.09645e-05	2	3.29157e-09	0.000000000000000E+000	543262	0.000000000000000E+000	4.1	0.000000000000000E+000	1.09645e-05	1.09645e-05	0.0000000E+000	1	-5.59085e-06
2	1	0	0	0	0	0	34.5	-0.300024	-0.300214	0.017409	4.00384e-05	4.00384e-05	41	1.50331e-05	2	4.51287e-09	0.000000000000000E+000	566066	0.000000000000000E+000	4.9	0.000000000000000E+000	1.50331e-05	1.50331e-05	0.0000000E+000	1	-5.22642e-06
2	1	0	0	0	0	0	35.3	-0.300024	-0.300195	0.0138021	5.25378e-05	5.25378e-05	41	1.85052e-05	2	5.55511e-09	0.000000000000000E+000	871141	0.000000000000000E+000	5.7	0.000000000000000E+000	1.85052e-05	1.85052e-05	0.0000000E+000	1	-4.14332e-06
2	1	0	0	0	0	0	36.1	-0.300024	-0.300188	0.00962416	6.18173e-05	6.18173e-05	41	2.10828e-05	2	6.32892e-09	0.000000000000000E+000	1.10248e+06	0.000000000000000E+000	6.5	0.000000000000000E+000	2.10828e-05	2.10828e-05	0.0000000E+000	1	-2.88905e-06
2	1	0	0	0	0	0	36.9	-0.300024	-0.300214	0.00529806	6.74287e-05	6.74287e-05	41	2.26415e-05	2	6.79685e-09	0.000000000000000E+000	852557	0.000000000000000E+000	7.3	0.000000000000000E+000	2.26415e-05	2.26415e-05	0.0000000E+000	1	-1.59055e-06
2	1	0	0	0	0	0	37.7	-0.300024	-0.300199	0.00268064	7.04188e-05	7.04188e-05	41	2.34721e-05	2	7.04618e-09	0.000000000000000E+000	1.05207e+06	0.000000000000000E+000	8.1	0.000000000000000E+000	2.34721e-05	2.34721e-05	0.0000000E+000	1	-8.04726e-07
2	1	0	0	0	0	0	38.5	-0.300024	-0.300188	0.000987182	7.17672e-05	7.17672e-05	41	2.38467e-05	2	7.15862e-09	0.000000000000000E+000	1.247e+06	0.000000000000000E+000	8.9	0.000000000000000E+000	2.38467e-05	2.38467e-05	0.0000000E+000	1	-2.9634e-07
2	1	0	0	0	0	0	39.3	-0.300024	-0.300226	-9.84558e-05	7.20091e-05	7.20091e-05	41	-3.54495e-09	3	7.17986e-09	1.06428e-12	1.12593e+06	370.749	0.1	3.54495e-09	0.000000000000000E+000	3.54495e-09	0.0000000E+000	1	2.9559e-08
2	0	0	0	0	0	0	40.1	-0.300024	-0.300207	-0.000635416	7.16719e-05	7.16719e-05	41	-9.72153e-08	3	7.17986e-09	2.91834e-11	1.12593e+06	22891.3	0.9	9.72153e-08	0.000000000000000E+000	9.72153e-08	0.0000000E+000	1	1.90756e-07
2	0	0	0	0	0	0	40.9	-0.300024	-0.300203	-0.000965496	7.0999e-05	7.0999e-05	41	-2.84125e-07	3	7.17986e-09	8.52922e-11	1.12593e+06	89145.8	1.7	2.84125e-07	0.000000000000000E+000	2.84125e-07	0.0000000E+000	1	2.89845e-07
2	0	0	0	0	0	0	41.7	-0.300024	-0.300226	-0.00116614	7.01278e-05	7.01278e-05	41	-5.26138e-07	3	7.17986e-09	1.57939e-10	1.12593e+06	55026.3	2.5	5.26138e-07	0.000000000000000E+000	5.26138e-07	0.0000000E+000	1	3.50104e-07
2	0	0	0	0	0	0	42.5	-0.300024	-0.300191	-0.00127489	6.91458e-05	6.91458e-05	41	-7.98908e-07	3	7.17986e-09	2.39818e-10	1.12593e+06	0.000000000000000E+000	3.3	7.98908e-07	0.000000000000000E+000	7.98908e-07	0.0000000E+000	1	3.8271e-07
2	0	0	0	0	0	0	43.3	-0.300024	-0.300126	-0.00142219	6.80636e-05	6.80636e-05	41	-1.09952e-06	3	7.17986e-09	3.30053e-10	1.12593e+06	60897.7	4.1	1.09952e-06	0.000000000000000E+000	1.09952e-06	0.0000000E+000	1	4.26837e-07
2	0	0	0	0	0	0	44.1	-0.300024	-0.30018	-0.0015643	6.68592e-05	6.68592e-05	41	-1.43409e-06	3	7.17986e-09	4.30481e-10	1.12593e+06	449954	4.9	1.43409e-06	0.000000000000000E+000	1.43409e-06	0.0000000E+000	1	4.69573e-07
2	0	0	0	0	0	0	44.9	-0.300024	-0.300207	-0.00166964	6.55613e-05	6.55613e-05	41	-1.7946e-06	3	7.17986e-09	5.38699e-10	1.12593e+06	422574	5.7	1.7946e-06	0.000000000000000E+000	1.7946e-06	0.0000000E+000	1	5.01239e-07
2	0	0	0	0	0	0	45.7	-0.300024	-0.300218	-0.00174985	6.41881e-05	6.41881e-05	41	-2.17606e-06	3	7.17986e-09	6.53207e-10	1.12593e+06	292716	6.5	2.17606e-06	0.000000000000000E+000	2.17606e-06	0.0000000E+000	1	5.25337e-07
2	0	0	0	0	0	0	46.5	-0.300024	-0.300169	-0.00182005	6.27553e-05	6.27553e-05	41	-2.57405e-06	3	7.17986e-09	7.72666e-10	1.12593e+06	403811	7.3	2.57405e-06	0.000000000000000E+000	2.57405e-06	0.0000000E+000	1	5.46322e-07
2	0	0	0	0	0	0	47.3	-0.300024	-0.300253	-0.00182074	6.12882e-05	6.12882e-05	41	-2.98158e-06	3	7.17986e-09	8.95e-10	1.12593e+06	175432	8.1	2.98158e-06	0.000000000000000E+000	2.98158e-06	0.0000000E+000	1	5.46682e-07
2	0	0	0	0	0	0	48.1	-0.300024	-0.300203	-0.00186304	5.98073e-05	5.98073e-05	41	-3.39295e-06	3	7.17986e-09	1.01849e-09	1.12593e+06	1.06456e+06	8.9	3.39295e-06	0.000000000000000E+000	3.39295e-06	0.0000000E+000	1	5.59291e-07
2	0	0	0	0	0	0	48.9	-0.300024	-0.300199	-0.00189592	5.82991e-05	5.82991e-05	41	-3.8119e-06	3	7.17986e-09	1.14425e-09	1.12593e+06	1.79168e+06	9.7	3.8119e-06	0.000000000000000E+000	3.8119e-06	0.0000000E+000	1	5.69154e-07
2	0	0	0	0	0	0	49.7	-0.300024	-0.300161	-0.00191202	5.67724e-05	5.67724e-05	41	-4.23598e-06	3	7.17986e-09	1.27156e-09	1.12593e+06	498722	10.5	4.23598e-06	0.000000000000000E+000	4.23598e-06	0.0000000E+000	1	5.73915e-07
2	0	0	0	0	0	0	50.5	-0.300024	-0.300222	-0.00191765	5.52431e-05	5.52431e-05	41	-4.66078e-06	3	7.17986e-09	1.39907e-09	1.12593e+06	548201	11.3	4.66078e-06	0.000000000000000E+000	4.66078e-06	0.0000000E+000	1	5.7572e-07
2	0	0	0	0	0	0	51.3	-0.300024	-0.300249	-0.0019421	5.36962e-05	5.36962e-05	41	-5.09048e-06	3	7.17986e-09	1.52807e-09	1.12593e+06	319600	12.1	5.09048e-06	0.000000000000000E+000	5.09048e-06	0.0000000E+000	1	5.83112e-07
2	0	0	0	0	0	0	52.1	-0.300024	-0.300203	-0.0019663	5.21322e-05	5.21322e-05	41	-5.52491e-06	3	7.17986e-09	1.65849e-09	1.12593e+06	1.73347e+06	12.9	5.52491e-06	0.000000000000000E+000	5.52491e-06	0.0000000E+000	1	5.90289e-07
2	0	0	0	0	0	0	52.9	-0.300024	-0.300184	-0.00193986	5.05649e-05	5.05649e-05	41	-5.96027e-06	3	7.17986e-09	1.78918e-09	1.12593e+06	2.81241e+06	13.7	5.96027e-06	0.000000000000000E+000	5.96027e-06	0.0000000E+000	1	5.82314e-07
2	0	0	0	0	0	0	53.7	-0.300024	-0.300172	-0.00187672	4.90365e-05	4.90365e-05	41	-6.38483e-06	3	7.17986e-09	1.91663e-09	1.12593e+06	1.20322e+06	14.5	6.38483e-06	0.000000000000000E+000	6.38483e-06	0.0000000E+000	1	5.63341e-07
2	0	0	0	0	0	0	54.5	-0.300024	-0.30018	-0.00180166	4.75704e-05	4.75704e-05	41	-6.79209e-06	3	7.17986e-09	2.03888e-09	1.12593e+06	2.13106e+06	15.3	6.79209e-06	0.000000000000000E+000	6.79209e-06	0.0000000E+000	1	5.40823e-07
2	0	0	0	0	0	0	55.3	-0.300024	-0.300203	-0.00166309	4.6193e-05	4.6193e-05	41	-7.17468e-06	3	7.17986e-09	2.15373e-09	1.12593e+06	2.2511e+06	16.1	7.17468e-06	0.000000000000000E+000	7.17468e-06	0.0000000E+000	1	4.99265e-07
2	0	0	0	0	0	0	56.1	-0.300024	-0.300134	-0.00148484	4.49382e-05	4.49382e-05	41	-7.52324e-06	3	7.17986e-09	2.25836e-09	1.12593e+06	472337	16.9	7.52324e-06	0.000000000000000E+000	7.52324e-06	0.0000000E+000	1	4.45651e-07
2	0	0	0	0	0	0	56.9	-0.300024	-0.300161	-0.00114819	4.38819e-05	4.38819e-05	41	-7.81667e-06	3	7.17986e-09	2.34644e-09	1.12593e+06	920295	17.7	7.81667e-06	0.000000000000000E+000	7.81667e-06	0.0000000E+000	1	3.44642e-07
2	0	0	0	0	0	0	57.7	-0.300024	-0.30018	-0.00039287	4.3272e-05	4.3272e-05	41	-7.98607e-06	3	7.17986e-09	2.39729e-09	1.12593e+06	2.50568e+06	18.5	7.98607e-06	0.000000000000000E+000	7.98607e-06	0.0000000E+000	1	1.17932e-07
2	1	0	0	0	0	0	58.5	-0.300024	-0.300169	0.000965171	4.35277e-05	4.35277e-05	41	8.14114e-08	4	2.44374e-11	0.000000000000000E+000	12771.6	0.000000000000000E+000	0.5	0.000000000000000E+000	8.14114e-08	8.14114e-08	0.0000000E+000	2	-2.89714e-07
2	1	0	0	0	0	0	59.3	-0.300024	-0.300222	0.00271361	4.50697e-05	4.50697e-05	41	5.09729e-07	4	1.53014e-10	0.000000000000000E+000	23995.8	0.000000000000000E+000	1.3	0.000000000000000E+000	5.09729e-07	5.09729e-07	0.0000000E+000	2	-8.14686e-07
2	1	0	0	0	0	0	60.1	-0.300024	-0.300115	0.00447367	4.80325e-05	4.80325e-05	41	1.33275e-06	4	4.00059e-10	0.000000000000000E+000	157064	0.000000000000000E+000	2.1	0.000000000000000E+000	1.33275e-06	1.33275e-06	0.0000000E+000	2	-1.34262e-06
2	1	0	0	0	0	0	60.9	-0.300024	-0.300161	0.00558191	5.21352e-05	5.21352e-05	41	2.47239e-06	4	7.42161e-10	0.000000000000000E+000	581040	0.000000000000000E+000	2.9	0.000000000000000E+000	2.47239e-06	2.47239e-06	0.0000000E+000	2	-1.67547e-06
2	1	0	0	0	0	0	61.7	-0.300024	-0.300146	0.00588561	5.67872e-05	5.67872e-05	41	3.7646e-06	4	1.13004e-09	0.000000000000000E+000	0.000000000000000E+000	0.000000000000000E+000	3.7	0.000000000000000E+000	3.7646e-06	3.7646e-06	0.0000000E+000	2	-1.76654e-06
2	1	0	0	0	0	0	62.5	-0.300024	-0.300126	0.00566602	6.14431e-05	6.14431e-05	41	5.05792e-06	4	1.51827e-09	0.000000000000000E+000	953161	0.000000000000000E+000	4.5	0.000000000000000E+000	5.05792e-06	5.05792e-06	0.0000000E+000	2	-1.70052e-06
2	1	0	0	0	0	0	63.3	-0.300024	-0.300195	0.0044714	6.54591e-05	6.54591e-05	41	6.17347e-06	4	1.85312e-09	0.000000000000000E+000	447081	0.000000000000000E+000	5.3	0.000000000000000E+000	6.17347e-06	6.17347e-06	0.0000000E+000	2	-1.34229e-06
2	1	0	0	0	0	0	64.1	-0.300024	-0.300184	0.00316527	6.84747e-05	6.84747e-05	41	7.01113e-06	4	2.10456e-09	0.000000000000000E+000	659592	0.000000000000000E+000	6.1	0.000000000000000E+000	7.01113e-06	7.01113e-06	0.0000000E+000	2	-9.50164e-07
2	1	0	0	0	0	0	64.9	-0.300024	-0.300188	0.00177915	7.03718e-05	7.03718e-05	41	7.53811e-06	4	2.26274e-09	0.000000000000000E+000	644882	0.000000000000000E+000	6.9	0.000000000000000E+000	7.53811e-06	7.53811e-06	0.0000000E+000	2	-5.34078e-07
2	1	0	0	0	0	0	65.7	-0.300024	-0.300157	0.000679399	7.1289e-05	7.1289e-05	41	7.79289e-06	4	2.33922e-09	0.000000000000000E+000	2.44506e+06	0.000000000000000E+000	7.7	0.000000000000000E+000	7.79289e-06	7.79289e-06	0.0000000E+000	2	-2.03926e-07
2	0	0	0	0	0	0	66.5	-0.300024	-0.300146	-0.000144103	7.14431e-05	7.14431e-05	41	-5.82847e-09	5	2.35381e-09	1.74962e-12	670838	343.107	0.1	5.82847e-09	0.000000000000000E+000	5.82847e-09	0.0000000E+000	2	4.32518e-08
2	0	0	0	0	0	0	67.3	-0.300024	-0.300176	-0.000704279	7.10601e-05	7.10601e-05	41	-1.12207e-07	5	2.35381e-09	3.36826e-11	670838	13210.7	0.9	1.12207e-07	0.000000000000000E+000	1.12207e-07	0.0000000E+000	2	2.11408e-07
2	0	0	0	0	0	0	68.1	-0.300024	-0.300119	-0.00107498	7.03181e-05	7.03181e-05	41	-3.18341e-07	5	2.35381e-09	9.55593e-11	670838	13030.9	1.7	3.18341e-07	0.000000000000000E+000	3.18341e-07	0.0000000E+000	2	3.22621e-07
2	0	0	0	0	0	0	68.9	-0.300024	-0.300184	-0.0013522	6.93256e-05	6.93256e-05	41	-5.94031e-07	5	2.35381e-09	1.78318e-10	670838	93190.3	2.5	5.94031e-07	0.000000000000000E+000	5.94031e-07	0.0000000E+000	2	4.05907e-07
2	0	0	0	0	0	0	69.7	-0.300024	-0.300176	-0.00154444	6.81524e-05	6.81524e-05	41	-9.19921e-07	5	2.35381e-09	2.76149e-10	670838	108307	3.3	9.19921e-07	0.000000000000000E+000	9.19921e-07	0.0000000E+000	2	4.63605e-07
2	0	0	0	0	0	0	70.5	-0.300024	-0.300146	-0.00167875	6.68521e-05	6.68521e-05	41	-1.28112e-06	5	2.35381e-09	3.84576e-10	670838	75416.4	4.1	1.28112e-06	0.000000000000000E+000	1.28112e-06	0.0000000E+000	2	5.0387e-07
2	0	0	0	0	0	0	71.3	-0.300024	-0.300126	-0.00177651	6.54636e-05	6.54636e-05	41	-1.66681e-06	5	2.35381e-09	5.00347e-10	670838	74738	4.9	1.66681e-06	0.000000000000000E+000	1.66681e-06	0.0000000E+000	2	5.33176e-07
2	0	0	0	0	0	0	72.1	-0.300024	-0.300191	-0.00185121	6.40084e-05	6.40084e-05	41	-2.07103e-06	5	2.35381e-09	6.21691e-10	670838	487665	5.7	2.07103e-06	0.000000000000000E+000	2.07103e-06	0.0000000E+000	2	5.55719e-07
2	0	0	0	0	0	0	72.9	-0.300024	-0.300203	-0.00191166	6.25009e-05	6.25009e-05	41	-2.48978e-06	5	2.35381e-09	7.474e-10	670838	2.34965e+06	6.5	2.48978e-06	0.000000000000000E+000	2.48978e-06	0.0000000E+000	2	5.73885e-07
2	0	0	0	0	0	0	73.7	-0.300024	-0.300176	-0.00195898	6.09508e-05	6.09508e-05	41	-2.92036e-06	5	2.35381e-09	8.76661e-10	670838	343828	7.3	2.92036e-06	0.000000000000000E+000	2.92036e-06	0.0000000E+000	2	5.8804e-07
2	0	0	0	0	0	0	74.5	-0.300024	-0.300218	-0.00199713	5.93663e-05	5.93663e-05	41	-3.36049e-06	5	2.35381e-09	1.00879e-09	670838	1.05437e+06	8.1	3.36049e-06	0.000000000000000E+000	3.36049e-06	0.0000000E+000	2	5.99574e-07
2	0	0	0	0	0	0	75.3	-0.300024	-0.300172	-0.00202665	5.77558e-05	5.77558e-05	41	-3.80785e-06	5	2.35381e-09	1.14308e-09	670838	398591	8.9	3.80785e-06	0.000000000000000E+000	3.80785e-06	0.0000000E+000	2	6.08344e-07
2	0	0	0	0	0	0	76.1	-0.300024	-0.300172	-0.00205496	5.61206e-05	5.61206e-05	41	-4.26209e-06	5	2.35381e-09	1.27944e-09	670838	446138	9.7	4.26209e-06	0.000000000000000E+000	4.26209e-06	0.0000000E+000	2	6.16841e-07
2	0	0	0	0	0	0	76.9	-0.300024	-0.300199	-0.00207471	5.44688e-05	5.44688e-05	41	-4.72092e-06	5	2.35381e-09	1.41718e-09	670838	2.22761e+06	10.5	4.72092e-06	0.000000000000000E+000	4.72092e-06	0.0000000E+000	2	6.22826e-07
2	0	0	0	0	0	0	77.7	-0.300024	-0.300207	-0.00209289	5.28011e-05	5.28011e-05	41	-5.18417e-06	5	2.35381e-09	1.55625e-09	670838	0.000000000000000E+000	11.3	5.18417e-06	0.000000000000000E+000	5.18417e-06	0.0000000E+000	2	6.28299e-07
2	0	0	0	0	0	0	78.5	-0.300024	-0.300184	-0.00211984	5.1117e-05	5.1117e-05	41	-5.65196e-06	5	2.35381e-09	1.69667e-09	670838	887820	12.1	5.65196e-06	0.000000000000000E+000	5.65196e-06	0.0000000E+000	2	6.36342e-07
2	0	0	0	0	0	0	79.3	-0.300024	-0.300161	-0.002129	4.94166e-05	4.94166e-05	41	-6.12431e-06	5	2.35381e-09	1.83847e-09	670838	480697	12.9	6.12431e-06	0.000000000000000E+000	6.12431e-06	0.0000000E+000	2	6.39044e-07
2	0	0	0	0	0	0	80.1	-0.300024	-0.300176	-0.00215527	4.7701e-05	4.7701e-05	41	-6.60085e-06	5	2.35381e-09	1.98153e-09	670838	777150	13.7	6.60085e-06	0.000000000000000E+000	6.60085e-06	0.0000000E+000	2	6.46959e-07
2	0	0	0	0	0	0	80.9	-0.300024	-0.300188	-0.00216999	4.59726e-05	4.59726e-05	41	-7.08096e-06	5	2.35381e-09	2.12565e-09	670838	1.3344e+06	14.5	7.08096e-06	0.000000000000000E+000	7.08096e-06	0.0000000E+000	2	6.51406e-07
2	0	0	0	0	0	0	81.7	-0.300024	-0.300199	-0.0021736	4.42339e-05	4.42339e-05	41	-7.56394e-06	5	2.35381e-09	2.27063e-09	670838	3.56911e+06	15.3	7.56394e-06	0.000000000000000E+000	7.56394e-06	0.0000000E+000	2	6.52511e-07
2	0	0	0	0	0	0	82.5	-0.300024	-0.300184	-0.00218459	4.24871e-05	4.24871e-05	41	-8.04917e-06	5	2.35381e-09	2.41628e-09	670838	1.26438e+06	16.1	8.04917e-06	0.000000000000000E+000	8.04917e-06	0.0000000E+000	2	6.55779e-07
2	0	0	0	0	0	0	83.3	-0.300024	-0.300176	-0.00218765	4.07399e-05	4.07399e-05	41	-8.5345e-06	5	2.35381e-09	2.56197e-09	670838	1.00481e+06	16.9	8.5345e-06	0.000000000000000E+000	8.5345e-06	0.0000000E+000	2	6.56681e-07
2	0	0	0	0	0	0	84.1	-0.300024	-0.300184	-0.00220151	3.89856e-05	3.89856e-05	41	-9.02181e-06	5	2.35381e-09	2.70825e-09	670838	1.41716e+06	17.7	9.02181e-06	0.000000000000000E+000	9.02181e-06	0.0000000E+000	2	6.60857e-07
2	0	0	0	0	0	0	84.9	-0.300024	-0.300203	-0.0021862	3.72291e-05	3.72291e-05	41	-9.50971e-06	5	2.35381e-09	2.85471e-09	670838	8.97449e+06	18.5	9.50971e-06	0.000000000000000E+000	9.50971e-06	0.0000000E+000	2	6.56304e-07
2	0	0	0	0	0	0	85.7	-0.300024	-0.300176	-0.00218515	3.54785e-05	3.54785e-05	41	-9.996e-06	5	2.35381e-09	3.00069e-09	670838	1.17688e+06	19.3	9.996e-06	0.000000000000000E+000	9.996e-06	0.0000000E+000	2	6.5593e-07
2	0	0	0	0	0	0	86.5	-0.300024	-0.300146	-0.00218316	3.3731e-05	3.3731e-05	41	-1.04814e-05	5	2.35381e-09	3.14639e-09	670838	617014	20.1	1.04814e-05	0.000000000000000E+000	1.04814e-05	0.0000000E+000	2	6.55267e-07
2	0	0	0	0	0	0	87.3	-0.300024	-0.300149	-0.0021778	3.1986e-05	3.1986e-05	41	-1.09661e-05	5	2.35381e-09	3.29189e-09	670838	688496	20.9	1.09661e-05	0.000000000000000E+000	1.09661e-05	0.0000000E+000	2	6.53666e-07
2	0	0	0	0	0	0	88.1	-0.300024	-0.300199	-0.00217191	3.02447e-05	3.02447e-05	41	-1.14498e-05	5	2.35381e-09	3.43708e-09	670838	5.40271e+06	21.7	1.14498e-05	0.000000000000000E+000	1.14498e-05	0.0000000E+000	2	6.52005e-07
2	0	0	0	0	0	0	88.9	-0.300024	-0.300172	-0.00217198	2.85059e-05	2.85059e-05	41	-1.19328e-05	5	2.35381e-09	3.58207e-09	670838	1.24908e+06	22.5	1.19328e-05	0.000000000000000E+000	1.19328e-05	0.0000000E+000	2	6.51968e-07
2	0	0	0	0	0	0	89.7	-0.300024	-0.300157	-0.00216969	2.67671e-05	2.67671e-05	41	-1.24158e-05	5	2.35381e-09	3.72706e-09	670838	899150	23.3	1.24158e-05	0.000000000000000E+000	1.24158e-05	0.0000000E+000	2	6.51248e-07
2	0	0	0	0	0	0	90.5	-0.300024	-0.300149	-0.00217333	2.50339e-05	2.50339e-05	41	-1.28973e-05	5	2.35381e-09	3.87158e-09	670838	809739	24.1	1.28973e-05	0.000000000000000E+000	1.28973e-05	0.0000000E+000	2	6.52325e-07
2	0	0	0	0	0	0	91.3	-0.300024	-0.300249	-0.00215018	2.32955e-05	2.32955e-05	41	-1.33802e-05	5	2.35381e-09	4.01654e-09	670838	1.14548e+06	24.9	1.33802e-05	0.000000000000000E+000	1.33802e-05	0.0000000E+000	2	6.45588e-07
2	0	0	0	0	0	0	92.1	-0.300024	-0.30018	-0.00214085	2.15809e-05	2.15809e-05	41	-1.38564e-05	5	2.35381e-09	4.15951e-09	670838	1.86392e+06	25.7	1.38564e-05	0.000000000000000E+000	1.38564e-05	0.0000000E+000	2	6.42641e-07
2	0	0	0	0	0	0	92.9	-0.300024	-0.300203	-0.00213211	1.98717e-05	1.98717e-05	41	-1.43312e-05	5	2.35381e-09	4.30204e-09	670838	1.35246e+07	26.5	1.43312e-05	0.000000000000000E+000	1.43312e-05	0.0000000E+000	2	6.40066e-07
2	0	0	0	0	0	0	93.7	-0.300024	-0.300165	-0.00211446	1.81735e-05	1.81735e-05	41	-1.4803e-05	5	2.35381e-09	4.44364e-09	670838	1.26728e+06	27.3	1.4803e-05	0.000000000000000E+000	1.4803e-05	0.0000000E+000	2	6.34686e-07
2	0	0	0	0	0	0	94.5	-0.300024	-0.300184	-0.0021103	1.6483e-05	1.6483e-05	41	-1.52725e-05	5	2.35381e-09	4.5846e-09	670838	2.39904e+06	28.1	1.52725e-05	0.000000000000000E+000	1.52725e-05	0.0000000E+000	2	6.33477e-07
2	0	0	0	0	0	0	95.3	-0.300024	-0.300188	-0.00209944	1.48004e-05	1.48004e-05	41	-1.57399e-05	5	2.35381e-09	4.72491e-09	670838	2.96617e+06	28.9	1.57399e-05	0.000000000000000E+000	1.57399e-05	0.0000000E+000	2	6.30225e-07
2	0	0	0	0	0	0	96.1	-0.300024	-0.300142	-0.00209575	1.31206e-05	1.31206e-05	41	-1.62065e-05	5	2.35381e-09	4.86498e-09	670838	897608	29.7	1.62065e-05	0.000000000000000E+000	1.62065e-05	0.0000000E+000	2	6.29022e-07
2	0	0	0	0	0	0	96.9	-0.300024	-0.300207	-0.00211087	1.14453e-05	1.14453e-05	41	-1.66719e-05	5	2.35381e-09	5.00468e-09	670838	0.000000000000000E+000	30.5	1.66719e-05	0.000000000000000E+000	1.66719e-05	0.0000000E+000	2	6.33698e-07
2	0	0	0	0	0	0	97.7	-0.300024	-0.300226	-0.0020805	9.77609e-06	9.77609e-06	41	-1.71356e-05	5	2.35381e-09	5.14386e-09	670838	3.22415e+06	31.3	1.71356e-05	0.000000000000000E+000	1.71356e-05	0.0000000E+000	2	6.24621e-07
2	0	0	0	0	0	0	98.5	-0.300024	-0.300188	-0.00207251	8.11517e-06	8.11517e-06	41	-1.75969e-05	5	2.35381e-09	5.28237e-09	670838	3.31613e+06	32.1	1.75969e-05	0.000000000000000E+000	1.75969e-05	0.0000000E+000	2	6.22142e-07
2	0	0	0	0	0	0	99.3	-0.300024	-0.300218	-0.00206611	6.45934e-06	6.45934e-06	41	-1.80569e-05	5	2.35381e-09	5.42045e-09	670838	5.66545e+06	32.9	1.80569e-05	0.000000000000000E+000	1.80569e-05	0.0000000E+000	2	6.20285e-07
2	0	0	0	0	0	0	100.1	-0.300024	-0.300211	-0.00206181	4.80913e-06	4.80913e-06	41	-1.85153e-05	5	2.35381e-09	5.55805e-09	670838	1.74732e+07	33.7	1.85153e-05	0.000000000000000E+000	1.85153e-05	0.0000000E+000	2	6.18977e-07
2	0	0	0	0	0	0	100.9	-0.300024	-0.300222	-0.00206056	3.16175e-06	3.16175e-06	41	-1.89729e-05	5	2.35381e-09	5.69541e-09	670838	4.45884e+06	34.5	1.89729e-05	0.000000000000000E+000	1.89729e-05	0.0000000E+000	2	6.18626e-07
2	0	0	0	0	0	0	101.7	-0.300024	-0.300195	-0.00204425	1.51814e-06	1.51814e-06	41	-1.94294e-05	5	2.35381e-09	5.83247e-09	670838	6.11197e+06	35.3	1.94294e-05	0.000000000000000E+000	1.94294e-05	0.0000000E+000	2	6.13674e-07
2	0	0	0	0	0	0	102.5	-0.300024	-0.300188	-0.00204235	-1.17696e-07	-1.17696e-07	41	-1.98838e-05	5	2.35381e-09	5.96887e-09	670838	3.74709e+06	36.1	1.98838e-05	0.000000000000000E+000	1.98838e-05	0.0000000E+000	2	6.13087e-07
2	0	0	0	0	0	0	103.3	-0.300024	-0.300191	-0.00201922	-1.74633e-06	-1.74633e-06	41	-2.03362e-05	5	2.35381e-09	6.10467e-09	670838	4.78857e+06	36.9	2.03362e-05	0.000000000000000E+000	2.03362e-05	0.0000000E+000	2	6.06154e-07
2	0	0	0	0	0	0	104.1	-0.300024	-0.300165	-0.00200893	-3.36658e-06	-3.36658e-06	41	-2.07863e-05	5	2.35381e-09	6.23978e-09	670838	1.77952e+06	37.7	2.07863e-05	0.000000000000000E+000	2.07863e-05	0.0000000E+000	2	6.03009e-07
2	0	0	0	0	0	0	104.9	-0.300024	-0.300169	-0.00199497	-4.96582e-06	-4.96582e-06	41	-2.12305e-05	5	2.35381e-09	6.37312e-09	670838	1.99888e+06	38.5	2.12305e-05	0.000000000000000E+000	2.12305e-05	0.0000000E+000	2	5.98826e-07
2	0	0	0	0	0	0	105.7	-0.300024	-0.300172	-0.00199616	-6.56438e-06	-6.56438e-06	41	-2.16746e-05	5	2.35381e-09	6.50643e-09	670838	2.26684e+06	39.3	2.16746e-05	0.000000000000000E+000	2.16746e-05	0.0000000E+000	2	5.99193e-07
2	0	0	0	0	0	0	106.5	-0.300024	-0.300226	-0.00198196	-8.15426e-06	-8.15426e-06	41	-2.21162e-05	5	2.35381e-09	6.63899e-09	670838	4.16129e+06	40.1	2.21162e-05	0.000000000000000E+000	2.21162e-05	0.0000000E+000	2	5.95035e-07
2	0	0	0	0	0	0	107.3	-0.300024	-0.30023	-0.00196293	-9.7322e-06	-9.7322e-06	41	-2.25545e-05	5	2.35381e-09	6.77058e-09	670838	3.53831e+06	40.9	2.25545e-05	0.000000000000000E+000	2.25545e-05	0.0000000E+000	2	5.8933e-07
2	0	0	0	0	0	0	108.1	-0.300024	-0.300195	-0.00195605	-1.12999e-05	-1.12999e-05	41	-2.299e-05	5	2.35381e-09	6.9013e-09	670838	7.21324e+06	41.7	2.299e-05	0.000000000000000E+000	2.299e-05	0.0000000E+000	2	5.87197e-07
2	0	0	0	0	0	0	108.9	-0.300024	-0.300184	-0.00191402	-1.28451e-05	-1.28451e-05	41	-2.34192e-05	5	2.35381e-09	7.03016e-09	670838	3.67396e+06	42.5	2.34192e-05	0.000000000000000E+000	2.34192e-05	0.0000000E+000	2	5.74557e-07
2	0	0	0	0	0	0	109.7	-0.300024	-0.300237	-0.00187274	-1.43591e-05	-1.43591e-05	41	-2.38398e-05	5	2.35381e-09	7.15641e-09	670838	2.80404e+06	43.3	2.38398e-05	0.000000000000000E+000	2.38398e-05	0.0000000E+000	2	5.62266e-07
2	0	0	0	0	0	0	110.5	-0.300024	-0.300195	-0.0018228	-1.58392e-05	-1.58392e-05	41	-2.42509e-05	5	2.35381e-09	7.27982e-09	670838	7.62867e+06	44.1	2.42509e-05	0.000000000000000E+000	2.42509e-05	0.0000000E+000	2	5.47196e-07
2	0	0	0	0	0	0	111.3	-0.300024	-0.30018	-0.00183523	-1.73261e-05	-1.73261e-05	41	-2.46639e-05	5	2.35381e-09	7.40381e-09	670838	3.31771e+06	44.9	2.46639e-05	0.000000000000000E+000	2.46639e-05	0.0000000E+000	2	5.509e-07
2	0	0	0	0	0	0	112.1	-0.300024	-0.300176	-0.00165794	-1.8712e-05	-1.8712e-05	41	-2.50489e-05	5	2.35381e-09	7.51938e-09	670838	2.94913e+06	45.7	2.50489e-05	0.000000000000000E+000	2.50489e-05	0.0000000E+000	2	4.97675e-07
2	0	0	0	0	0	0	112.9	-0.300024	-0.30018	-0.0015771	-2.0005e-05	-2.0005e-05	41	-2.54081e-05	5	2.35381e-09	7.6272e-09	670838	3.41781e+06	46.5	2.54081e-05	0.000000000000000E+000	2.54081e-05	0.0000000E+000	2	4.73415e-07
2	0	0	0	0	0	0	113.7	-0.300024	-0.300142	-0.00145993	-2.12159e-05	-2.12159e-05	41	-2.57444e-05	5	2.35381e-09	7.72818e-09	670838	1.42587e+06	47.3	2.57444e-05	0.000000000000000E+000	2.57444e-05	0.0000000E+000	2	4.38187e-07
2	0	0	0	0	0	0	114.5	-0.300024	-0.300195	-0.00133999	-2.23318e-05	-2.23318e-05	41	-2.60544e-05	5	2.35381e-09	7.82123e-09	670838	8.19601e+06	48.1	2.60544e-05	0.000000000000000E+000	2.60544e-05	0.0000000E+000	2	4.0226e-07
2	0	0	0	0	0	0	115.3	-0.300024	-0.300142	-0.00124695	-2.33625e-05	-2.33625e-05	41	-2.63407e-05	5	2.35381e-09	7.90719e-09	670838	1.4589e+06	48.9	2.63407e-05	0.000000000000000E+000	2.63407e-05	0.0000000E+000	2	3.74263e-07
2	0	0	0	0	0	0	116.1	-0.300024	-0.300279	-0.00119398	-2.43272e-05	-2.43272e-05	41	-2.66087e-05	5	2.35381e-09	7.98763e-09	670838	1.31893e+06	49.7	2.66087e-05	0.000000000000000E+000	2.66087e-05	0.0000000E+000	2	3.58527e-07
2	0	0	0	0	0	0	116.9	-0.300024	-0.300199	-0.00111523	-2.52465e-05	-2.52465e-05	41	-2.68641e-05	5	2.35381e-09	8.06429e-09	670838	1.26761e+07	50.5	2.68641e-05	0.000000000000000E+000	2.68641e-05	0.0000000E+000	2	3.34792e-07
2	0	0	0	0	0	0	117.7	-0.300024	-0.30023	-0.00105396	-2.61095e-05	-2.61095e-05	41	-2.71038e-05	5	2.35381e-09	8.13625e-09	670838	4.25198e+06	51.3	2.71038e-05	0.000000000000000E+000	2.71038e-05	0.0000000E+000	2	3.16431e-07
2	0	0	0	0	0	0	118.5	-0.300024	-0.300253	-0.000997836	-2.69273e-05	-2.69273e-05	41	-2.7331e-05	5	2.35381e-09	8.20445e-09	670838	2.14381e+06	52.1	2.7331e-05	0.000000000000000E+000	2.7331e-05	0.0000000E+000	2	2.99603e-07
2	0	0	0	0	0	0	119.3	-0.300024	-0.300245	-0.000957003	-2.77071e-05	-2.77071e-05	41	-2.75476e-05	5	2.35381e-09	8.26948e-09	670838	2.59364e+06	52.9	2.75476e-05	0.000000000000000E+000	2.75476e-05	0.0000000E+000	2	2.87335e-07
2	0	0	0	0	0	0	120.1	-0.300024	-0.300211	-0.000921784	-2.84572e-05	-2.84572e-05	41	-2.77559e-05	5	2.35381e-09	8.33203e-09	670838	2.59907e+07	53.7	2.77559e-05	0.000000000000000E+000	2.77559e-05	0.0000000E+000	2	2.76729e-07
2	0	0	0	0	0	0	120.9	-0.300024	-0.300169	-0.000930612	-2.91926e-05	-2.91926e-05	41	-2.79602e-05	5	2.35381e-09	8.39336e-09	670838	2.63249e+06	54.5	2.79602e-05	0.000000000000000E+000	2.79602e-05	0.0000000E+000	2	2.79341e-07
2	0	0	0	0	0	0	121.7	-0.300024	-0.30018	-0.00106055	-2.99867e-05	-2.99867e-05	41	-2.81808e-05	5	2.35381e-09	8.45957e-09	670838	3.79078e+06	55.3	2.81808e-05	0.000000000000000E+000	2.81808e-05	0.0000000E+000	2	3.18356e-07
2	0	0	0	0	0	0	122.5	-0.300024	-0.300153	-0.00129102	-3.09338e-05	-3.09338e-05	41	-2.84439e-05	5	2.35381e-09	8.53856e-09	670838	1.91309e+06	56.1	2.84439e-05	0.000000000000000E+000	2.84439e-05	0.0000000E+000	2	3.87505e-07
2	0	0	0	0	0	0	123.3	-0.300024	-0.300218	-0.00142614	-3.20324e-05	-3.20324e-05	41	-2.8749e-05	5	2.35381e-09	8.63017e-09	670838	9.02017e+06	56.9	2.8749e-05	0.000000000000000E+000	2.8749e-05	0.0000000E+000	2	4.28152e-07
2	0	0	0	0	0	0	124.1	-0.300024	-0.300172	-0.00150807	-3.32134e-05	-3.32134e-05	41	-2.90771e-05	5	2.35381e-09	8.72865e-09	670838	3.04367e+06	57.7	2.90771e-05	0.000000000000000E+000	2.90771e-05	0.0000000E+000	2	4.5268e-07
2	0	0	0	0	0	0	124.9	-0.300024	-0.300165	-0.00154691	-3.44386e-05	-3.44386e-05	41	-2.94174e-05	5	2.35381e-09	8.83081e-09	670838	2.51843e+06	58.5	2.94174e-05	0.000000000000000E+000	2.94174e-05	0.0000000E+000	2	4.64329e-07
2	0	0	0	0	0	0	125.7	-0.300024	-0.300214	-0.00153846	-3.56766e-05	-3.56766e-05	41	-2.97613e-05	5	2.35381e-09	8.93405e-09	670838	1.39885e+07	59.3	2.97613e-05	0.000000000000000E+000	2.97613e-05	0.0000000E+000	2	4.61867e-07
2	0	0	0	0	0	0	126.5	-0.300024	-0.300207	-0.00153469	-3.69019e-05	-3.69019e-05	41	-3.01017e-05	5	2.35381e-09	9.03622e-09	670838	0.000000000000000E+000	60.1	3.01017e-05	0.000000000000000E+000	3.01017e-05	0.0000000E+000	2	4.60726e-07
2	0	0	0	0	0	0	127.3	-0.300024	-0.300226	-0.00157235	-3.81436e-05	-3.81436e-05	41	-3.04466e-05	5	2.35381e-09	9.13977e-09	670838	5.7287e+06	60.9	3.04466e-05	0.000000000000000E+000	3.04466e-05	0.0000000E+000	2	4.72061e-07
2	0	0	0	0	0	0	128.1	-0.300024	-0.300188	-0.0016093	-3.9416e-05	-3.9416e-05	41	-3.08e-05	5	2.35381e-09	9.24587e-09	670838	5.80424e+06	61.7	3.08e-05	0.000000000000000E+000	3.08e-05	0.0000000E+000	2	4.83091e-07
2	0	0	0	0	0	0	128.9	-0.300024	-0.300214	-0.00163682	-4.07151e-05	-4.07151e-05	41	-3.11609e-05	5	2.35381e-09	9.3542e-09	670838	1.46463e+07	62.5	3.11609e-05	0.000000000000000E+000	3.11609e-05	0.0000000E+000	2	4.91397e-07
2	0	0	0	0	0	0	129.7	-0.300024	-0.300184	-0.00167244	-4.20382e-05	-4.20382e-05	41	-3.15284e-05	5	2.35381e-09	9.46453e-09	670838	4.95254e+06	63.3	3.15284e-05	0.000000000000000E+000	3.15284e-05	0.0000000E+000	2	5.02038e-07
2	0	0	0	0	0	0	130.5	-0.300024	-0.300134	-0.00167581	-4.33731e-05	-4.33731e-05	41	-3.18992e-05	5	2.35381e-09	9.57585e-09	670838	1.58116e+06	64.1	3.18992e-05	0.000000000000000E+000	3.18992e-05	0.0000000E+000	2	5.02967e-07
2	0	0	0	0	0	0	131.3	-0.300024	-0.300188	-0.00169158	-4.47213e-05	-4.47213e-05	41	-3.22737e-05	5	2.35381e-09	9.68828e-09	670838	6.08196e+06	64.9	3.22737e-05	0.000000000000000E+000	3.22737e-05	0.0000000E+000	2	5.07792e-07
2	0	0	0	0	0	0	132.1	-0.300024	-0.300234	-0.00170575	-4.60805e-05	-4.60805e-05	41	-3.26513e-05	5	2.35381e-09	9.80163e-09	670838	4.39214e+06	65.7	3.26513e-05	0.000000000000000E+000	3.26513e-05	0.0000000E+000	2	5.12125e-07
2	0	0	0	0	0	0	132.9	-0.300024	-0.300172	-0.0017136	-4.74492e-05	-4.74492e-05	41	-3.30315e-05	5	2.35381e-09	9.91576e-09	670838	3.4546e+06	66.5	3.30315e-05	0.000000000000000E+000	3.30315e-05	0.0000000E+000	2	5.14376e-07
2	0	0	0	0	0	0	133.7	-0.300024	-0.300279	-0.00172179	-4.88239e-05	-4.88239e-05	41	-3.34133e-05	5	2.35381e-09	1.00304e-08	670838	1.65621e+06	67.3	3.34133e-05	0.000000000000000E+000	3.34133e-05	0.0000000E+000	2	5.17017e-07
2	0	0	0	0	0	0	134.5	-0.300024	-0.300207	-0.00172983	-5.02023e-05	-5.02023e-05	41	-3.37962e-05	5	2.35381e-09	1.01453e-08	670838	0.000000000000000E+000	68.1	3.37962e-05	0.000000000000000E+000	3.37962e-05	0.0000000E+000	2	5.19308e-07
2	0	0	0	0	0	0	135.3	-0.300024	-0.300195	-0.00172441	-5.15816e-05	-5.15816e-05	41	-3.41794e-05	5	2.35381e-09	1.02604e-08	670838	1.0724e+07	68.9	3.41794e-05	0.000000000000000E+000	3.41794e-05	0.0000000E+000	2	5.17659e-07
2	0	0	0	0	0	0	136.1	-0.300024	-0.300138	-0.00171096	-5.29554e-05	-5.29554e-05	41	-3.4561e-05	5	2.35381e-09	1.03749e-08	670838	1.80807e+06	69.7	3.4561e-05	0.000000000000000E+000	3.4561e-05	0.0000000E+000	2	5.13523e-07
2	0	0	0	0	0	0	136.9	-0.300024	-0.300222	-0.00169274	-5.4317e-05	-5.4317e-05	41	-3.49392e-05	5	2.35381e-09	1.04885e-08	670838	8.22712e+06	70.5	3.49392e-05	0.000000000000000E+000	3.49392e-05	0.0000000E+000	2	5.08197e-07
2	0	0	0	0	0	0	137.7	-0.300024	-0.300188	-0.0016261	-5.56449e-05	-5.56449e-05	41	-3.53081e-05	5	2.35381e-09	1.05992e-08	670838	6.65378e+06	71.3	3.53081e-05	0.000000000000000E+000	3.53081e-05	0.0000000E+000	2	4.88135e-07
2	0	0	0	0	0	0	138.5	-0.300024	-0.300191	-0.00148126	-5.68875e-05	-5.68875e-05	41	-3.56532e-05	5	2.35381e-09	1.07028e-08	670838	8.39525e+06	72.1	3.56532e-05	0.000000000000000E+000	3.56532e-05	0.0000000E+000	2	4.44661e-07
2	0	0	0	0	0	0	139.3	-0.300024	-0.30018	-0.00120546	-5.79577e-05	-5.79577e-05	41	-3.59505e-05	5	2.35381e-09	1.07921e-08	670838	4.83594e+06	72.9	3.59505e-05	0.000000000000000E+000	3.59505e-05	0.0000000E+000	2	3.61856e-07
2	0	0	0	0	0	0	140.1	-0.300024	-0.300142	-0.000846337	-5.87622e-05	-5.87622e-05	41	-3.6174e-05	5	2.35381e-09	1.08591e-08	670838	2.00352e+06	73.7	3.6174e-05	0.000000000000000E+000	3.6174e-05	0.0000000E+000	2	2.54021e-07
2	0	0	0	0	0	0	140.9	-0.300024	-0.300176	-0.000373252	-5.92396e-05	-5.92396e-05	41	-3.63066e-05	5	2.35381e-09	1.08989e-08	670838	4.27455e+06	74.5	3.63066e-05	0.000000000000000E+000	3.63066e-05	0.0000000E+000	2	1.12041e-07
2	1	0	0	0	0	0	141.7	-0.300024	-0.300157	0.000252985	-5.92749e-05	-5.92749e-05	41	1.33486e-08	6	4.00684e-12	0.000000000000000E+000	837.637	0.000000000000000E+000	0.2	0.000000000000000E+000	1.33486e-08	1.33486e-08	0.0000000E+000	3	-7.59353e-08
2	1	0	0	0	0	0	142.5	-0.300024	-0.300211	0.000980181	-5.87478e-05	-5.87478e-05	41	1.59764e-07	6	4.79619e-11	0.000000000000000E+000	150772	0.000000000000000E+000	1	0.000000000000000E+000	1.59764e-07	1.59764e-07	0.0000000E+000	3	-2.94261e-07
2	1	0	0	0	0	0	143.3	-0.300024	-0.300214	0.00159549	-5.76859e-05	-5.76859e-05	41	4.54741e-07	6	1.36511e-10	0.000000000000000E+000	0.000000000000000E+000	0.000000000000000E+000	1.8	0.000000000000000E+000	4.54741e-07	4.54741e-07	0.0000000E+000	3	-4.78989e-07
2	1	0	0	0	0	0	144.1	-0.300024	-0.300253	0.00200832	-5.62043e-05	-5.62043e-05	41	8.66299e-07	6	2.60063e-10	0.000000000000000E+000	81563.1	0.000000000000000E+000	2.6	0.000000000000000E+000	8.66299e-07	8.66299e-07	0.0000000E+000	3	-6.03003e-07
2	1	0	0	0	0	0	144.9	-0.300024	-0.30018	0.002083	-5.45464e-05	-5.45464e-05	41	1.32684e-06	6	3.9831e-10	0.000000000000000E+000	138768	0.000000000000000E+000	3.4	0.000000000000000E+000	1.32684e-06	1.32684e-06	0.0000000E+000	3	-6.25276e-07
2	1	0	0	0	0	0	145.7	-0.300024	-0.300191	0.00169374	-5.30132e-05	-5.30132e-05	41	1.75272e-06	6	5.26157e-10	0.000000000000000E+000	274963	0.000000000000000E+000	4.2	0.000000000000000E+000	1.75272e-06	1.75272e-06	0.0000000E+000	3	-5.08448e-07
2	1	0	0	0	0	0	146.5	-0.300024	-0.300188	0.00112159	-5.18782e-05	-5.18782e-05	41	2.068e-06	6	6.20801e-10	0.000000000000000E+000	278181	0.000000000000000E+000	5	0.000000000000000E+000	2.068e-06	2.068e-06	0.0000000E+000	3	-3.36688e-07
2	1	0	0	0	0	0	147.3	-0.300024	-0.300218	0.000370232	-5.13234e-05	-5.13234e-05	41	2.2221e-06	6	6.67063e-10	0.000000000000000E+000	2.09704e+06	0.000000000000000E+000	5.8	0.000000000000000E+000	2.2221e-06	2.2221e-06	0.0000000E+000	3	-1.1115e-07
2	0	0	0	0	0	0	148.1	-0.300024	-0.300207	-0.000227545	-5.1303e-05	-5.1303e-05	41	-1.36807e-08	7	6.72869e-10	4.1072e-12	162422	2578.12	0.3	1.36807e-08	0.000000000000000E+000	1.36807e-08	0.0000000E+000	3	6.83107e-08
2	0	0	0	0	0	0	148.9	-0.300024	-0.300188	-0.0006885	-5.17015e-05	-5.17015e-05	41	-1.24363e-07	7	6.72869e-10	3.73339e-11	162422	0.000000000000000E+000	1.1	1.24363e-07	0.000000000000000E+000	1.24363e-07	0.0000000E+000	3	2.06679e-07
2	0	0	0	0	0	0	149.7	-0.300024	-0.300195	-0.00101925	-5.24093e-05	-5.24093e-05	41	-3.20992e-07	7	6.72869e-10	9.63573e-11	162422	151463	1.9	3.20992e-07	0.000000000000000E+000	3.20992e-07	0.0000000E+000	3	3.05973e-07
2	0	0	0	0	0	0	150.5	-0.300024	-0.300188	-0.00126334	-5.33428e-05	-5.33428e-05	41	-5.80294e-07	7	6.72869e-10	1.74198e-10	162422	0.000000000000000E+000	2.7	5.80294e-07	0.000000000000000E+000	5.80294e-07	0.0000000E+000	3	3.79238e-07
2	0	0	0	0	0	0	151.3	-0.300024	-0.300191	-0.00144293	-5.44436e-05	-5.44436e-05	41	-8.86052e-07	7	6.72869e-10	2.65984e-10	162422	836183	3.5	8.86052e-07	0.000000000000000E+000	8.86052e-07	0.0000000E+000	3	4.33155e-07
2	0	0	0	0	0	0	152.1	-0.300024	-0.300188	-0.00155775	-5.56445e-05	-5.56445e-05	41	-1.21964e-06	7	6.72869e-10	3.66131e-10	162422	0.000000000000000E+000	4.3	1.21964e-06	0.000000000000000E+000	1.21964e-06	0.0000000E+000	3	4.67616e-07
2	0	0	0	0	0	0	152.9	-0.300024	-0.300199	-0.00164087	-5.69324e-05	-5.69324e-05	41	-1.5774e-06	7	6.72869e-10	4.73527e-10	162422	494918	5.1	1.5774e-06	0.000000000000000E+000	1.5774e-06	0.0000000E+000	3	4.92587e-07
2	0	0	0	0	0	0	153.7	-0.300024	-0.300222	-0.00170233	-5.82731e-05	-5.82731e-05	41	-1.9498e-06	7	6.72869e-10	5.85316e-10	162422	203920	5.9	1.9498e-06	0.000000000000000E+000	1.9498e-06	0.0000000E+000	3	5.11076e-07
2	0	0	0	0	0	0	154.5	-0.300024	-0.300199	-0.00174813	-5.96566e-05	-5.96566e-05	41	-2.33412e-06	7	6.72869e-10	7.00688e-10	162422	732343	6.7	2.33412e-06	0.000000000000000E+000	2.33412e-06	0.0000000E+000	3	5.24787e-07
2	0	0	0	0	0	0	155.3	-0.300024	-0.300191	-0.00179604	-6.10744e-05	-6.10744e-05	41	-2.72796e-06	7	6.72869e-10	8.1891e-10	162422	2.57443e+06	7.5	2.72796e-06	0.000000000000000E+000	2.72796e-06	0.0000000E+000	3	5.39156e-07
2	0	0	0	0	0	0	156.1	-0.300024	-0.300188	-0.00195555	-6.25659e-05	-6.25659e-05	41	-3.14224e-06	7	6.72869e-10	9.43278e-10	162422	0.000000000000000E+000	8.3	3.14224e-06	0.000000000000000E+000	3.14224e-06	0.0000000E+000	3	5.87033e-07
2	0	0	0	0	0	0	156.9	-0.300024	-0.30013	-0.00184536	-6.40562e-05	-6.40562e-05	41	-3.55622e-06	7	6.72869e-10	1.06755e-09	162422	223157	9.1	3.55622e-06	0.000000000000000E+000	3.55622e-06	0.0000000E+000	3	5.53848e-07
2	0	0	0	0	0	0	157.7	-0.300024	-0.300207	-0.00189079	-6.55478e-05	-6.55478e-05	41	-3.97055e-06	7	6.72869e-10	1.19192e-09	162422	747082	9.9	3.97055e-06	0.000000000000000E+000	3.97055e-06	0.0000000E+000	3	5.67628e-07
2	0	0	0	0	0	0	158.5	-0.300024	-0.300169	-0.00192054	-6.70752e-05	-6.70752e-05	41	-4.39483e-06	7	6.72869e-10	1.31927e-09	162422	826913	10.7	4.39483e-06	0.000000000000000E+000	4.39483e-06	0.0000000E+000	3	5.76487e-07
2	0	0	0	0	0	0	159.3	-0.300024	-0.300211	-0.00193249	-6.86221e-05	-6.86221e-05	41	-4.82454e-06	7	6.72869e-10	1.44826e-09	162422	756863	11.5	4.82454e-06	0.000000000000000E+000	4.82454e-06	0.0000000E+000	3	5.80154e-07
2	0	0	0	0	0	0	160.1	-0.300024	-0.300165	-0.00195552	-7.01791e-05	-7.01791e-05	41	-5.25703e-06	7	6.72869e-10	1.57808e-09	162422	824712	12.3	5.25703e-06	0.000000000000000E+000	5.25703e-06	0.0000000E+000	3	5.86979e-07
2	0	0	0	0	0	0	160.9	-0.300024	-0.300184	-0.00196655	-7.17481e-05	-7.17481e-05	41	-5.69286e-06	7	6.72869e-10	1.7089e-09	162422	5.37245e+06	13.1	5.69286e-06	0.000000000000000E+000	5.69286e-06	0.0000000E+000	3	5.90327e-07
2	0	0	0	0	0	0	161.7	-0.300024	-0.300184	-0.00196032	-7.33365e-05	-7.33365e-05	41	-6.13409e-06	7	6.72869e-10	1.84135e-09	162422	5.78885e+06	13.9	6.13409e-06	0.000000000000000E+000	6.13409e-06	0.0000000E+000	3	5.88457e-07
2	0	0	0	0	0	0	162.5	-0.300024	-0.300195	-0.00201706	-7.49297e-05	-7.49297e-05	41	-6.57664e-06	7	6.72869e-10	1.97419e-09	162422	3.09117e+06	14.7	6.57664e-06	0.000000000000000E+000	6.57664e-06	0.0000000E+000	3	6.05513e-07
2	0	0	0	0	0	0	163.3	-0.300024	-0.300176	-0.00205937	-7.65638e-05	-7.65638e-05	41	-7.03057e-06	7	6.72869e-10	2.11045e-09	162422	2.20588e+06	15.5	7.03057e-06	0.000000000000000E+000	7.03057e-06	0.0000000E+000	3	6.18175e-07
2	0	0	0	0	0	0	164.1	-0.300024	-0.300203	-0.00214232	-7.82418e-05	-7.82418e-05	41	-7.49667e-06	7	6.72869e-10	2.25037e-09	162422	1.76524e+06	16.3	7.49667e-06	0.000000000000000E+000	7.49667e-06	0.0000000E+000	3	6.43132e-07
2	0	0	0	0	0	0	164.9	-0.300024	-0.300165	-0.00218545	-7.99828e-05	-7.99828e-05	41	-7.98028e-06	7	6.72869e-10	2.39554e-09	162422	1.25193e+06	17.1	7.98028e-06	0.000000000000000E+000	7.98028e-06	0.0000000E+000	3	6.55996e-07
2	0	0	0	0	0	0	165.7	-0.300024	-0.30023	-0.00223095	-8.17536e-05	-8.17536e-05	41	-8.47217e-06	7	6.72869e-10	2.5432e-09	162422	725304	17.9	8.47217e-06	0.000000000000000E+000	8.47217e-06	0.0000000E+000	3	6.69798e-07
2	0	0	0	0	0	0	166.5	-0.300024	-0.300172	-0.00223717	-8.35413e-05	-8.35413e-05	41	-8.96877e-06	7	6.72869e-10	2.69227e-09	162422	2.11187e+06	18.7	8.96877e-06	0.000000000000000E+000	8.96877e-06	0.0000000E+000	3	6.71536e-07
2	0	0	0	0	0	0	167.3	-0.300024	-0.300169	-0.00224062	-8.53332e-05	-8.53332e-05	41	-9.4665e-06	7	6.72869e-10	2.84168e-09	162422	1.78118e+06	19.5	9.4665e-06	0.000000000000000E+000	9.4665e-06	0.0000000E+000	3	6.72562e-07
2	0	0	0	0	0	0	168.1	-0.300024	-0.30018	-0.00224337	-8.71275e-05	-8.71275e-05	41	-9.96492e-06	7	6.72869e-10	2.99129e-09	162422	4.68374e+06	20.3	9.96492e-06	0.000000000000000E+000	9.96492e-06	0.0000000E+000	3	6.73414e-07
2	0	0	0	0	0	0	168.9	-0.300024	-0.300176	-0.00222073	-8.89133e-05	-8.89133e-05	41	-1.0461e-05	7	6.72869e-10	3.1402e-09	162422	3.28219e+06	21.1	1.0461e-05	0.000000000000000E+000	1.0461e-05	0.0000000E+000	3	6.6661e-07
2	0	0	0	0	0	0	169.7	-0.300024	-0.300176	-0.00221	-9.06827e-05	-9.06827e-05	41	-1.09525e-05	7	6.72869e-10	3.28774e-09	162422	3.4364e+06	21.9	1.09525e-05	0.000000000000000E+000	1.09525e-05	0.0000000E+000	3	6.63388e-07
2	0	0	0	0	0	0	170.044	-0.300024	-0.300226	-0.00221827	-9.14413e-05	-9.14413e-05	41	-1.11632e-05	7	6.72869e-10	3.351e-09	162422	1.05103e+06	22.2436	1.11632e-05	0.000000000000000E+000	1.11632e-05	498.035	3	6.65983e-07