File: Fig 3/Fig 3_RRDE-np-Fe3O4_500mvs_ring.mpt
mode	ox/red	error	control changes	counter inc.	time/s	control/V	Ewe/V	<I>/mA	cycle number	(Q-Qo)/C	I Range	step time/s	P/W
2	1	0	1	0	0.000000000000000E+000	-0.299996	-0.298785	8.67467	1	0.0000000E+000	39	0.000000000000000E+000	-0.00259186
2	1	0	1	0	0.0155	-0.307744	-0.307799	0.110383	1	1.18759e-05	39	0.0153	-3.39757e-05
2	1	0	1	0	0.0355	-0.317743	-0.317752	0.0438401	1	1.3261e-05	39	0.0353	-1.39303e-05
2	1	0	1	0	0.0555	-0.327741	-0.327751	0.0244207	1	1.39199e-05	39	0.0553	-8.00389e-06
2	1	0	1	0	0.0755	-0.337739	-0.33773	0.0154077	1	1.43036e-05	39	0.0753	-5.20363e-06
2	1	0	1	0	0.0955	-0.347737	-0.347743	0.00902277	1	1.45329e-05	39	0.0953	-3.1376e-06
2	1	0	1	0	0.1155	-0.357736	-0.357716	0.00356966	1	1.46571e-05	39	0.1153	-1.27692e-06
2	0	0	1	0	0.1355	-0.367734	-0.36772	-0.000187158	1	1.47009e-05	39	0.000000000000000E+000	6.88216e-08
2	0	0	1	0	0.1555	-0.377732	-0.377713	-0.00269674	1	1.46821e-05	39	0.01	1.01859e-06
2	0	0	1	0	0.1755	-0.38773	-0.387745	-0.00394047	1	1.46059e-05	39	0.03	1.5279e-06
2	0	0	1	0	0.1955	-0.397729	-0.397704	-0.00603785	1	1.44942e-05	39	0.05	2.40128e-06
2	0	0	1	0	0.2155	-0.407727	-0.407736	-0.00834806	1	1.43473e-05	39	0.07	3.40381e-06
2	0	0	1	0	0.2355	-0.417725	-0.417727	-0.0103737	1	1.41634e-05	39	0.09	4.33335e-06
2	0	0	1	0	0.2555	-0.427723	-0.427759	-0.0107552	1	1.39543e-05	39	0.11	4.60064e-06
2	0	0	1	0	0.2755	-0.437722	-0.43772	-0.011045	1	1.37281e-05	39	0.13	4.83463e-06
2	0	0	1	0	0.2955	-0.44772	-0.447753	-0.0126552	1	1.34811e-05	39	0.15	5.66642e-06
2	0	0	1	0	0.3155	-0.457718	-0.457742	-0.0141989	1	1.32108e-05	39	0.17	6.49942e-06
2	0	0	1	0	0.3355	-0.467716	-0.467708	-0.0154093	1	1.29198e-05	39	0.19	7.20704e-06
2	0	0	1	0	0.3555	-0.477715	-0.477741	-0.0160606	1	1.26084e-05	39	0.21	7.6728e-06
2	0	0	1	0	0.3755	-0.487713	-0.487742	-0.0158075	1	1.22848e-05	39	0.23	7.70999e-06
2	0	0	1	0	0.3955	-0.497711	-0.497738	-0.0171476	1	1.19468e-05	39	0.25	8.53501e-06
2	0	0	1	0	0.4155	-0.507709	-0.507711	-0.018483	1	1.15882e-05	39	0.27	9.38401e-06
2	0	0	1	0	0.4355	-0.517707	-0.517706	-0.0199626	1	1.12119e-05	39	0.29	1.03348e-05
2	0	0	1	0	0.4555	-0.527706	-0.527701	-0.0197616	1	1.08246e-05	39	0.31	1.04282e-05
2	0	0	1	0	0.4755	-0.537704	-0.537702	-0.0195193	1	1.04258e-05	39	0.33	1.04956e-05
2	0	0	1	0	0.4955	-0.547702	-0.547701	-0.0202998	1	1.00134e-05	39	0.35	1.11182e-05
2	0	0	1	0	0.5155	-0.5577	-0.557699	-0.0224065	1	9.58432e-06	39	0.37	1.24961e-05
2	0	0	1	0	0.5355	-0.567699	-0.567687	-0.0236577	1	9.13558e-06	39	0.39	1.34302e-05
2	0	0	1	0	0.5555	-0.577697	-0.577719	-0.023542	1	8.67124e-06	39	0.41	1.36007e-05
2	0	0	1	0	0.5757	-0.587895	-0.587912	-0.0231305	1	8.18879e-06	39	0.4302	1.35987e-05
2	0	0	1	0	0.5957	-0.597893	-0.5979	-0.0242825	1	7.69752e-06	39	0.4502	1.45185e-05
2	0	0	1	0	0.6157	-0.607892	-0.607878	-0.0258285	1	7.19024e-06	39	0.4702	1.57005e-05
2	0	0	1	0	0.6357	-0.61789	-0.617885	-0.0273584	1	6.66453e-06	39	0.4902	1.69043e-05
2	0	0	1	0	0.6557	-0.627888	-0.627885	-0.0275039	1	6.12158e-06	39	0.5102	1.72693e-05
2	0	0	1	0	0.6757	-0.637886	-0.637901	-0.0271919	1	5.56724e-06	39	0.5302	1.73457e-05
2	0	0	1	0	0.6957	-0.647885	-0.647896	-0.0280017	1	4.99887e-06	39	0.5502	1.81422e-05
2	0	0	1	0	0.7157	-0.657883	-0.657905	-0.0305271	1	4.41128e-06	39	0.5702	2.00839e-05
2	0	0	1	0	0.7357	-0.667881	-0.6679	-0.0314897	1	3.80442e-06	39	0.5902	2.1032e-05
2	0	0	1	0	0.7557	-0.677879	-0.677896	-0.032044	1	3.17803e-06	39	0.6102	2.17225e-05
2	0	0	1	0	0.7757	-0.687877	-0.6879	-0.0320362	1	2.53649e-06	39	0.6302	2.20377e-05
2	0	0	1	0	0.7957	-0.697876	-0.697868	-0.0330163	1	1.8712e-06	39	0.6502	2.3041e-05
2	0	0	1	0	0.8157	-0.707874	-0.707878	-0.0354178	1	1.18212e-06	39	0.6702	2.50715e-05
2	0	0	1	0	0.8357	-0.717872	-0.717881	-0.0376203	1	4.63618e-07	39	0.6902	2.70069e-05
2	0	0	1	0	0.8557	-0.72787	-0.727878	-0.0384273	1	-2.84468e-07	39	0.7102	2.79704e-05
2	0	0	1	0	0.8757	-0.737869	-0.73789	-0.038702	1	-1.06374e-06	39	0.7302	2.85578e-05
2	0	0	1	0	0.8957	-0.747867	-0.747887	-0.0407734	1	-1.87356e-06	39	0.7502	3.04939e-05
2	0	0	1	0	0.9157	-0.757865	-0.75788	-0.0437188	1	-2.72507e-06	39	0.7702	3.31336e-05
2	0	0	1	0	0.9357	-0.767863	-0.767866	-0.0468865	1	-3.62281e-06	39	0.7902	3.60025e-05
2	0	0	1	0	0.9557	-0.777862	-0.777853	-0.0483897	1	-4.56428e-06	39	0.8102	3.76401e-05
2	0	0	1	0	0.9757	-0.78786	-0.787861	-0.0498299	1	-5.54863e-06	39	0.8302	3.92591e-05
2	0	0	1	0	0.9957	-0.797858	-0.797861	-0.0520462	1	-6.58232e-06	39	0.8502	4.15256e-05
2	0	0	1	0	1.0157	-0.807856	-0.807842	-0.0561352	1	-7.6702e-06	39	0.8702	4.53483e-05
2	0	0	1	0	1.0357	-0.817855	-0.817868	-0.0602988	1	-8.82501e-06	39	0.8902	4.93164e-05
2	0	0	1	0	1.0557	-0.827853	-0.827844	-0.0626648	1	-1.00412e-05	39	0.9102	5.18767e-05
2	0	0	1	0	1.0757	-0.837851	-0.837849	-0.0646252	1	-1.132e-05	39	0.9302	5.41462e-05
2	0	0	1	0	1.0957	-0.847849	-0.847832	-0.0681746	1	-1.26662e-05	39	0.9502	5.78006e-05
2	0	0	1	0	1.1157	-0.857848	-0.857828	-0.073902	1	-1.40952e-05	39	0.9702	6.33952e-05
2	0	0	1	0	1.1357	-0.867846	-0.867822	-0.0791154	1	-1.56131e-05	39	0.9902	6.86581e-05
2	0	0	1	0	1.1557	-0.877844	-0.877836	-0.0827432	1	-1.72189e-05	39	1.0102	7.2635e-05
2	0	0	1	0	1.1757	-0.887842	-0.887847	-0.0862699	1	-1.89148e-05	39	1.0302	7.65945e-05
2	0	0	1	0	1.1957	-0.897841	-0.897832	-0.0910363	1	-2.07076e-05	39	1.0502	8.17353e-05
2	0	0	1	0	1.2157	-0.907839	-0.907839	-0.0984101	1	-2.26089e-05	39	1.0702	8.93406e-05
2	0	0	1	0	1.2357	-0.917837	-0.917842	-0.104947	1	-2.46301e-05	39	1.0902	9.63252e-05
2	0	0	1	0	1.2557	-0.927835	-0.927812	-0.11011	1	-2.67669e-05	39	1.1102	0.000102161
2	0	0	1	0	1.2757	-0.937833	-0.937857	-0.114814	1	-2.90191e-05	39	1.1302	0.000107679
2	0	0	1	0	1.2957	-0.947832	-0.947809	-0.120749	1	-3.13915e-05	39	1.1502	0.000114447
2	0	0	1	0	1.3157	-0.95783	-0.957816	-0.128767	1	-3.3897e-05	39	1.1702	0.000123335
2	0	0	1	0	1.3357	-0.967828	-0.96784	-0.136454	1	-3.65395e-05	39	1.1902	0.000132066
2	0	0	1	0	1.3557	-0.977826	-0.977817	-0.14191	1	-3.931e-05	39	1.2102	0.000138762
2	0	0	1	0	1.3757	-0.987825	-0.98782	-0.146781	1	-4.22013e-05	39	1.2302	0.000144993
2	0	0	1	0	1.3957	-0.997823	-0.997827	-0.152221	1	-4.52108e-05	39	1.2502	0.00015189
2	0	0	1	0	1.4157	-1.00782	-1.0078	-0.159708	1	-4.83383e-05	39	1.2702	0.000160954
2	0	0	1	0	1.4357	-1.01782	-1.01779	-0.166207	1	-5.15822e-05	39	1.2902	0.000169165
2	0	0	1	0	1.4557	-1.02782	-1.02781	-0.169985	1	-5.49297e-05	39	1.3102	0.000174713
2	0	0	1	0	1.4757	-1.03782	-1.03782	-0.173465	1	-5.83697e-05	39	1.3302	0.000180026
2	0	0	1	0	1.4957	-1.04781	-1.0478	-0.178225	1	-6.19035e-05	39	1.3502	0.000186743
2	0	0	1	0	1.5157	-1.05781	-1.05781	-0.184546	1	-6.55381e-05	39	1.3702	0.000195216
2	0	0	1	0	1.5357	-1.06781	-1.06779	-0.19132	1	-6.92835e-05	39	1.3902	0.000204291
2	0	0	1	0	1.5557	-1.07781	-1.0778	-0.19703	1	-7.31535e-05	39	1.4102	0.000212359
2	0	0	1	0	1.5757	-1.08781	-1.08781	-0.20341	1	-7.7159e-05	39	1.4302	0.000221271
2	0	0	1	0	1.5957	-1.09781	-1.0978	-0.21347	1	-8.13434e-05	39	1.4502	0.000234349
2	0	0	1	0	1.6157	-1.1078	-1.10779	-0.228005	1	-8.57651e-05	39	1.4702	0.000252581
2	0	0	1	0	1.6357	-1.1178	-1.11778	-0.246156	1	-9.04895e-05	39	1.4902	0.00027515
2	0	0	1	0	1.6557	-1.1278	-1.12779	-0.266289	1	-9.55927e-05	39	1.5102	0.000300319
2	0	0	1	0	1.6757	-1.1378	-1.13778	-0.289779	1	-0.000101146	39	1.5302	0.000329704
2	0	0	1	0	1.6957	-1.1478	-1.1478	-0.317174	1	-0.000107226	39	1.5502	0.000364052
2	0	0	1	0	1.7159	-1.15799	-1.15798	-0.351677	1	-0.000114001	39	1.5704	0.000407235
2	0	0	1	0	1.7359	-1.16799	-1.168	-0.395841	1	-0.000121448	39	1.5904	0.000462342
2	0	0	1	0	1.7559	-1.17799	-1.17797	-0.461165	1	-0.000129947	39	1.6104	0.00054324
2	0	0	1	0	1.7759	-1.18799	-1.18798	-0.572572	1	-0.000140199	39	1.6304	0.000680206
2	0	0	1	0	1.7959	-1.19799	-1.19799	-0.760849	1	-0.000153406	39	1.6504	0.000911489
2	0	0	1	0	1.8159	-1.20799	-1.20798	-1.04562	1	-0.000171364	39	1.6704	0.00126309
2	0	0	1	0	1.8359	-1.21798	-1.21798	-1.40354	1	-0.0001958	39	1.6904	0.00170948
2	0	0	1	0	1.8559	-1.22798	-1.22797	-1.78486	1	-0.000227677	39	1.7104	0.00219176
2	0	0	1	0	1.8759	-1.23798	-1.23797	-2.15536	1	-0.00026716	39	1.7304	0.00266827
2	0	0	1	0	1.8959	-1.24798	-1.24797	-2.50675	1	-0.000313882	39	1.7504	0.00312835
2	0	0	1	0	1.9159	-1.25798	-1.25794	-2.81915	1	-0.000367227	39	1.7704	0.00354633
2	0	0	1	0	1.9359	-1.26798	-1.26793	-3.09048	1	-0.000426455	39	1.7904	0.00391853
2	0	0	1	0	1.9559	-1.27797	-1.27798	-3.32735	1	-0.000490714	39	1.8104	0.00425229
2	0	0	1	0	1.9759	-1.28797	-1.28797	-3.50937	1	-0.000559141	39	1.8304	0.00451996
2	0	0	1	0	1.9959	-1.29797	-1.29797	-3.66016	1	-0.000630878	39	1.8504	0.00475079
2	0	0	1	0	2.0159	-1.30797	-1.30794	-3.79931	1	-0.000705577	39	1.8704	0.00496928
2	0	0	1	0	2.0359	-1.31797	-1.31793	-3.91833	1	-0.000782759	39	1.8904	0.0051641
2	0	0	1	0	2.0559	-1.32796	-1.32795	-4.04039	1	-0.000862288	39	1.9104	0.00536541
2	0	0	1	0	2.0759	-1.33796	-1.33796	-4.20031	1	-0.000944628	39	1.9304	0.00561985
2	0	0	1	0	2.0959	-1.34796	-1.34799	-4.37806	1	-0.00103037	39	1.9504	0.00590159
2	0	0	1	1	2.1097	-1.34536	-1.34536	-4.27395	2	-0.00109053	39	1.9642	0.00575001
2	0	0	1	1	2.1297	-1.33536	-1.33538	-3.94552	2	-0.00117282	39	1.9842	0.00526875
2	0	0	1	1	2.1497	-1.32537	-1.32535	-3.57724	2	-0.00124807	39	2.0042	0.00474111
2	0	0	1	1	2.1697	-1.31537	-1.31537	-3.20402	2	-0.00131593	39	2.0242	0.00421448
2	0	0	1	1	2.1897	-1.30537	-1.30536	-2.83248	2	-0.00137621	39	2.0442	0.00369741
2	0	0	1	1	2.2097	-1.29537	-1.29537	-2.48487	2	-0.00142932	39	2.0642	0.00321883
2	0	0	1	1	2.2297	-1.28537	-1.28535	-2.17076	2	-0.00147583	39	2.0842	0.00279019
2	0	0	1	1	2.2497	-1.27537	-1.27539	-1.88238	2	-0.00151629	39	2.1042	0.00240077
2	0	0	1	1	2.2697	-1.26538	-1.26538	-1.62376	2	-0.00155128	39	2.1242	0.00205466
2	0	0	1	1	2.2897	-1.25538	-1.25539	-1.39189	2	-0.00158134	39	2.1442	0.00174737
2	0	0	1	1	2.3097	-1.24538	-1.24539	-1.1911	2	-0.00160709	39	2.1642	0.00148339
2	0	0	1	1	2.3297	-1.23538	-1.23538	-1.01494	2	-0.00162912	39	2.1842	0.00125384
2	0	0	1	1	2.3497	-1.22538	-1.22538	-0.867685	2	-0.00164791	39	2.2042	0.00106325
2	0	0	1	1	2.3697	-1.21538	-1.21539	-0.741943	2	-0.00166395	39	2.2242	0.000901748
2	0	0	1	1	2.3897	-1.20539	-1.20537	-0.631467	2	-0.00167762	39	2.2442	0.000761151
2	0	0	1	1	2.4097	-1.19539	-1.19542	-0.537993	2	-0.00168928	39	2.2642	0.00064313
2	0	0	1	1	2.4297	-1.18539	-1.1854	-0.45857	2	-0.00169923	39	2.2842	0.000543591
2	0	0	1	1	2.4497	-1.17539	-1.1754	-0.389806	2	-0.00170771	39	2.3042	0.000458178
2	0	0	1	1	2.4697	-1.16539	-1.1654	-0.328494	2	-0.00171487	39	2.3242	0.000382827
2	0	0	1	1	2.4897	-1.1554	-1.15538	-0.272006	2	-0.00172085	39	2.3442	0.00031427
2	0	0	1	1	2.5099	-1.1452	-1.14519	-0.217471	2	-0.00172578	39	2.3644	0.000249045
2	0	0	1	1	2.5299	-1.1352	-1.1352	-0.17237	2	-0.00172969	39	2.3844	0.000195674
2	0	0	1	1	2.5499	-1.1252	-1.1252	-0.130685	2	-0.00173273	39	2.4044	0.000147047
2	0	0	1	1	2.5699	-1.1152	-1.11518	-0.0929113	2	-0.00173495	39	2.4244	0.000103613
2	0	0	1	1	2.5899	-1.1052	-1.10518	-0.0564174	2	-0.00173641	39	2.4444	6.23514e-05
2	0	0	1	1	2.6099	-1.09521	-1.0952	-0.0229435	2	-0.0017372	39	2.4644	2.51277e-05
2	1	0	1	1	2.6299	-1.08521	-1.08523	0.00638274	2	-0.00173738	39	0.002	-6.92674e-06
2	1	0	1	1	2.6499	-1.07521	-1.07522	0.0307116	2	-0.00173702	39	0.022	-3.30219e-05
2	1	0	1	1	2.6699	-1.06521	-1.0652	0.0535245	2	-0.00173616	39	0.042	-5.70144e-05
2	1	0	1	1	2.6899	-1.05521	-1.05523	0.0758661	2	-0.00173485	39	0.062	-8.0056e-05
2	1	0	1	1	2.7099	-1.04521	-1.04524	0.0991876	2	-0.0017331	39	0.082	-0.000103675
2	1	0	1	1	2.7299	-1.03522	-1.03523	0.123189	2	-0.0017309	39	0.102	-0.000127529
2	1	0	1	1	2.7499	-1.02522	-1.02525	0.145915	2	-0.00172823	39	0.122	-0.000149599
2	1	0	1	1	2.7699	-1.01522	-1.01522	0.172796	2	-0.00172503	39	0.142	-0.000175426
2	1	0	1	1	2.7899	-1.00522	-1.00521	0.206231	2	-0.00172123	39	0.162	-0.000207306
2	1	0	1	1	2.8099	-0.995223	-0.995222	0.239333	2	-0.00171675	39	0.182	-0.000238189
2	1	0	1	1	2.8299	-0.985225	-0.985241	0.262117	2	-0.00171173	39	0.202	-0.000258249
2	1	0	1	1	2.8499	-0.975227	-0.975244	0.269579	2	-0.00170642	39	0.222	-0.000262905
2	1	0	1	1	2.8699	-0.965229	-0.965248	0.269268	2	-0.00170101	39	0.242	-0.000259911
2	1	0	1	1	2.8899	-0.95523	-0.955238	0.273205	2	-0.00169557	39	0.262	-0.000260975
2	1	0	1	1	2.9099	-0.945232	-0.945231	0.284481	2	-0.00169001	39	0.282	-0.0002689
2	1	0	1	1	2.9299	-0.935234	-0.935263	0.299421	2	-0.00168419	39	0.302	-0.000280037
2	1	0	1	1	2.9499	-0.925236	-0.925251	0.31878	2	-0.00167803	39	0.322	-0.000294951
2	1	0	1	1	2.9699	-0.915237	-0.915236	0.341444	2	-0.00167142	39	0.342	-0.000312502
2	1	0	1	1	2.9899	-0.905239	-0.905222	0.368689	2	-0.0016643	39	0.362	-0.000333745
2	1	0	1	1	3.0099	-0.895241	-0.895281	0.400593	2	-0.0016566	39	0.382	-0.000358643
2	1	0	1	1	3.0299	-0.885243	-0.885297	0.43412	2	-0.00164827	39	0.402	-0.000384325
2	1	0	1	1	3.0499	-0.875244	-0.875271	0.463115	2	-0.0016393	39	0.422	-0.000405351
2	1	0	1	1	3.0699	-0.865246	-0.865268	0.491024	2	-0.00162974	39	0.442	-0.000424867
2	1	0	1	1	3.0899	-0.855248	-0.855264	0.515599	2	-0.00161965	39	0.462	-0.000440974
2	1	0	1	1	3.1099	-0.84525	-0.845275	0.531439	2	-0.00160915	39	0.482	-0.000449212
2	1	0	1	1	3.1299	-0.835252	-0.83527	0.540123	2	-0.00159843	39	0.502	-0.000451148
2	1	0	1	1	3.1499	-0.825253	-0.82528	0.539396	2	-0.00158764	39	0.522	-0.000445152
2	1	0	1	1	3.1699	-0.815255	-0.815278	0.530791	2	-0.00157692	39	0.542	-0.000432742
2	1	0	1	1	3.1899	-0.805257	-0.805292	0.522957	2	-0.00156636	39	0.562	-0.000421133
2	1	0	1	1	3.2099	-0.795259	-0.795289	0.513227	2	-0.001556	39	0.582	-0.000408164
2	1	0	1	1	3.2299	-0.78526	-0.785301	0.500205	2	-0.00154588	39	0.602	-0.000392811
2	1	0	1	1	3.2499	-0.775262	-0.775268	0.486447	2	-0.00153602	39	0.622	-0.000377127
2	1	0	1	1	3.2699	-0.765264	-0.765277	0.472026	2	-0.00152643	39	0.642	-0.000361231
2	1	0	1	1	3.2899	-0.755266	-0.755302	0.45702	2	-0.00151712	39	0.662	-0.000345188
2	1	0	1	1	3.3099	-0.745267	-0.745299	0.445107	2	-0.00150809	39	0.682	-0.000331738
2	1	0	1	1	3.3299	-0.735269	-0.735298	0.432779	2	-0.00149933	39	0.702	-0.000318222
2	1	0	1	1	3.3499	-0.725271	-0.725269	0.417096	2	-0.00149084	39	0.722	-0.000302506
2	1	0	1	1	3.3699	-0.715273	-0.715272	0.403306	2	-0.00148262	39	0.742	-0.000288474
2	1	0	1	1	3.3899	-0.705274	-0.705295	0.392094	2	-0.00147466	39	0.762	-0.000276542
2	1	0	1	1	3.4099	-0.695276	-0.695269	0.38121	2	-0.00146693	39	0.782	-0.000265043
2	1	0	1	1	3.4299	-0.685278	-0.685291	0.372216	2	-0.00145942	39	0.802	-0.000255076
2	1	0	1	1	3.4499	-0.67528	-0.675284	0.362047	2	-0.00145209	39	0.822	-0.000244484
2	1	0	1	1	3.4699	-0.665281	-0.665302	0.352569	2	-0.00144493	39	0.842	-0.000234565
2	1	0	1	1	3.4899	-0.655283	-0.655297	0.347761	2	-0.00143791	39	0.862	-0.000227887
2	1	0	1	1	3.5099	-0.645285	-0.645311	0.343937	2	-0.001431	39	0.882	-0.000221946
2	1	0	1	1	3.5299	-0.635287	-0.635327	0.340317	2	-0.00142417	39	0.902	-0.000216212
2	1	0	1	1	3.5499	-0.625289	-0.625319	0.337615	2	-0.00141739	39	0.922	-0.000211117
2	1	0	1	1	3.5699	-0.61529	-0.615318	0.335534	2	-0.00141066	39	0.942	-0.00020646
2	1	0	1	1	3.5899	-0.605292	-0.605315	0.334297	2	-0.00140395	39	0.962	-0.000202355
2	1	0	1	1	3.6099	-0.595294	-0.595297	0.336332	2	-0.00139724	39	0.982	-0.000200217
2	1	0	1	1	3.6299	-0.585296	-0.585294	0.336965	2	-0.00139052	39	1.002	-0.000197224
2	1	0	1	1	3.6501	-0.575097	-0.575135	0.335386	2	-0.00138372	39	1.0222	-0.000192892
2	1	0	1	1	3.6701	-0.565099	-0.565141	0.334748	2	-0.001377	39	1.0422	-0.00018918
2	1	0	1	1	3.6901	-0.555101	-0.555123	0.335134	2	-0.00137028	39	1.0622	-0.00018604
2	1	0	1	1	3.7101	-0.545103	-0.545118	0.333861	2	-0.00136359	39	1.0822	-0.000181994
2	1	0	1	1	3.7301	-0.535104	-0.53513	0.332712	2	-0.00135692	39	1.1022	-0.000178044
2	1	0	1	1	3.7501	-0.525106	-0.525128	0.327826	2	-0.00135032	39	1.1222	-0.000172151
2	1	0	1	1	3.7701	-0.515108	-0.515145	0.321872	2	-0.00134381	39	1.1422	-0.000165811
2	1	0	1	1	3.7901	-0.50511	-0.505152	0.318082	2	-0.00133739	39	1.1622	-0.00016068
2	1	0	1	1	3.8101	-0.495111	-0.495145	0.313506	2	-0.00133108	39	1.1822	-0.000155231
2	1	0	1	1	3.8301	-0.485113	-0.485142	0.307206	2	-0.00132487	39	1.2022	-0.000149039
2	1	0	1	1	3.8501	-0.475115	-0.475147	0.301704	2	-0.00131879	39	1.2222	-0.000143354
2	1	0	1	1	3.8701	-0.465117	-0.465148	0.295846	2	-0.00131281	39	1.2422	-0.000137612
2	1	0	1	1	3.8901	-0.455118	-0.455157	0.290584	2	-0.00130693	39	1.2622	-0.000132262
2	1	0	1	1	3.9101	-0.44512	-0.445149	0.287702	2	-0.00130114	39	1.2822	-0.00012807
2	1	0	1	1	3.9301	-0.435122	-0.435167	0.28383	2	-0.00129544	39	1.3022	-0.000123514
2	1	0	1	1	3.9501	-0.425124	-0.425179	0.277919	2	-0.00128982	39	1.3222	-0.000118165
2	1	0	1	1	3.9701	-0.415126	-0.415141	0.273828	2	-0.00128429	39	1.3422	-0.000113677
2	1	0	1	1	3.9901	-0.405127	-0.405156	0.27153	2	-0.00127883	39	1.3622	-0.000110012
2	1	0	1	1	4.0101	-0.395129	-0.395157	0.268617	2	-0.00127343	39	1.3822	-0.000106146
2	1	0	1	1	4.0301	-0.385131	-0.385168	0.266715	2	-0.00126808	39	1.4022	-0.00010273
2	1	0	1	1	4.0501	-0.375133	-0.375175	0.262903	2	-0.0012628	39	1.4222	-9.86345e-05
2	1	0	1	1	4.0701	-0.365134	-0.365148	0.258324	2	-0.00125757	39	1.4422	-9.43266e-05
2	1	0	1	1	4.0901	-0.355136	-0.355172	0.257605	2	-0.0012524	39	1.4622	-9.1494e-05
2	1	0	1	1	4.1101	-0.345138	-0.34518	0.255826	2	-0.00124727	39	1.4822	-8.83063e-05
2	1	0	1	1	4.1301	-0.33514	-0.335189	0.253149	2	-0.00124218	39	1.5022	-8.48529e-05
2	1	0	1	1	4.1501	-0.325141	-0.325167	0.251153	2	-0.00123714	39	1.5222	-8.16668e-05
2	1	0	1	1	4.1701	-0.315143	-0.315165	0.248603	2	-0.00123214	39	1.5422	-7.83511e-05
2	1	0	1	1	4.1901	-0.305145	-0.305174	0.247008	2	-0.00122716	39	1.5622	-7.53806e-05
2	1	0	1	1	4.2037	-0.301645	-0.301649	0.208479	2	-0.00122389	39	1.5758	-6.28875e-05
2	1	0	1	1	4.2237	-0.311644	-0.311656	0.175711	2	-0.00122008	39	1.5958	-5.47616e-05
2	1	0	1	1	4.2437	-0.321642	-0.321683	0.154322	2	-0.0012168	39	1.6158	-4.96427e-05
2	1	0	1	1	4.2637	-0.33164	-0.331643	0.137109	2	-0.0012139	39	1.6358	-4.54712e-05
2	1	0	1	1	4.2837	-0.341638	-0.341638	0.12168	2	-0.00121132	39	1.6558	-4.15705e-05
2	1	0	1	1	4.3037	-0.351637	-0.35167	0.108533	2	-0.00120902	39	1.6758	-3.81677e-05
2	1	0	1	1	4.3237	-0.361635	-0.361663	0.0981173	2	-0.00120694	39	1.6958	-3.54854e-05
2	1	0	1	1	4.3437	-0.371633	-0.371672	0.0895423	2	-0.00120507	39	1.7158	-3.32804e-05
2	1	0	1	1	4.3637	-0.381631	-0.38164	0.0809787	2	-0.00120338	39	1.7358	-3.09047e-05
2	1	0	1	1	4.3837	-0.39163	-0.391632	0.07281	2	-0.00120185	39	1.7558	-2.85148e-05
2	1	0	1	1	4.4037	-0.401628	-0.401645	0.0652583	2	-0.00120046	39	1.7758	-2.62107e-05
2	1	0	1	1	4.4237	-0.411626	-0.41167	0.0595646	2	-0.0011992	39	1.7958	-2.4521e-05
2	1	0	1	1	4.4437	-0.421624	-0.421661	0.0545397	2	-0.00119806	39	1.8158	-2.29972e-05
2	1	0	1	1	4.4637	-0.431623	-0.431654	0.0499949	2	-0.00119703	39	1.8358	-2.15805e-05
2	1	0	1	1	4.4837	-0.441621	-0.441655	0.0444283	2	-0.00119609	39	1.8558	-1.96219e-05
2	1	0	1	1	4.5037	-0.451619	-0.451659	0.0386992	2	-0.00119525	39	1.8758	-1.74789e-05
2	1	0	1	1	4.5237	-0.461617	-0.461637	0.03581	2	-0.00119449	39	1.8958	-1.65312e-05
2	1	0	1	1	4.5437	-0.471616	-0.471631	0.0328045	2	-0.00119381	39	1.9158	-1.54716e-05
2	1	0	1	1	4.5637	-0.481614	-0.481614	0.0295351	2	-0.00119319	39	1.9358	-1.42245e-05
2	1	0	1	1	4.5837	-0.491612	-0.491635	0.0254832	2	-0.00119265	39	1.9558	-1.25284e-05
2	1	0	1	1	4.6037	-0.50161	-0.501634	0.0213389	2	-0.00119218	39	1.9758	-1.07044e-05
2	1	0	1	1	4.6237	-0.511609	-0.511652	0.0193771	2	-0.00119176	39	1.9958	-9.91431e-06
2	1	0	1	1	4.6437	-0.521607	-0.521637	0.0174152	2	-0.00119139	39	2.0158	-9.08442e-06
2	1	0	1	1	4.6637	-0.531605	-0.531654	0.0153813	2	-0.00119107	39	2.0358	-8.17751e-06
2	1	0	1	1	4.6837	-0.541603	-0.541644	0.0119336	2	-0.0011908	39	2.0558	-6.46375e-06
2	1	0	1	1	4.7037	-0.551601	-0.551624	0.00873681	2	-0.00119059	39	2.0758	-4.81943e-06
2	1	0	1	1	4.7237	-0.5616	-0.561647	0.00705553	2	-0.00119041	39	2.0958	-3.96272e-06
2	1	0	1	1	4.7437	-0.571598	-0.571643	0.00616184	2	-0.00119028	39	2.1158	-3.52237e-06
2	1	0	1	1	4.7637	-0.581596	-0.581645	0.00490618	2	-0.00119019	39	2.1358	-2.85366e-06
2	1	0	1	1	4.7839	-0.591794	-0.591795	0.00198677	2	-0.00119013	39	2.156	-1.17576e-06
2	0	0	1	1	4.8039	-0.601793	-0.601828	-0.00124376	2	-0.00119011	39	0.002	7.48527e-07
2	0	0	1	1	4.8239	-0.611791	-0.611812	-0.00198953	2	-0.00119014	39	0.008	1.21722e-06
2	0	0	1	1	4.8439	-0.621789	-0.621814	-0.00271677	2	-0.00119018	39	0.028	1.68933e-06
2	0	0	1	1	4.8639	-0.631787	-0.631827	-0.00388198	2	-0.00119026	39	0.048	2.45274e-06
2	0	0	1	1	4.8839	-0.641786	-0.641804	-0.00631223	2	-0.00119037	39	0.068	4.05121e-06
2	0	0	1	1	4.9039	-0.651784	-0.651803	-0.0090676	2	-0.00119051	39	0.088	5.91029e-06
2	0	0	1	1	4.9239	-0.661782	-0.661811	-0.00959792	2	-0.00119068	39	0.108	6.352e-06
2	0	0	1	1	4.9439	-0.67178	-0.671797	-0.0102789	2	-0.00119088	39	0.128	6.90534e-06
2	0	0	1	1	4.9639	-0.681779	-0.681815	-0.011294	2	-0.00119111	39	0.148	7.7004e-06
2	0	0	1	1	4.9839	-0.691777	-0.691812	-0.014062	2	-0.00119137	39	0.168	9.72829e-06
2	0	0	1	1	5.0039	-0.701775	-0.701783	-0.0170412	2	-0.00119168	39	0.188	1.19592e-05
2	0	0	1	1	5.0239	-0.711773	-0.711794	-0.0180432	2	-0.00119201	39	0.208	1.2843e-05
2	0	0	1	1	5.0439	-0.721772	-0.721776	-0.0185883	2	-0.00119238	39	0.228	1.34166e-05
2	0	0	1	1	5.0639	-0.73177	-0.731799	-0.020008	2	-0.00119278	39	0.248	1.46418e-05
2	0	0	1	1	5.0839	-0.741768	-0.741799	-0.0234344	2	-0.00119323	39	0.268	1.73836e-05
2	0	0	1	1	5.1039	-0.751766	-0.751761	-0.0265073	2	-0.00119372	39	0.288	1.99272e-05
2	0	0	1	1	5.1239	-0.761765	-0.76179	-0.0289585	2	-0.00119426	39	0.308	2.20603e-05
2	0	0	1	1	5.1439	-0.771763	-0.771765	-0.0304854	2	-0.00119486	39	0.328	2.35276e-05
2	0	0	1	1	5.1639	-0.781761	-0.781809	-0.0327251	2	-0.0011955	39	0.348	2.55847e-05
2	0	0	1	1	5.1839	-0.791759	-0.79178	-0.0373121	2	-0.00119621	39	0.368	2.9543e-05
2	0	0	1	1	5.2039	-0.801757	-0.801763	-0.0417849	2	-0.00119699	39	0.388	3.35016e-05
2	0	0	1	1	5.2239	-0.811756	-0.811774	-0.0448047	2	-0.00119784	39	0.408	3.63713e-05
2	0	0	1	1	5.2439	-0.821754	-0.821771	-0.0479982	2	-0.00119877	39	0.428	3.94435e-05
2	0	0	1	1	5.2639	-0.831752	-0.831773	-0.0515236	2	-0.00119978	39	0.448	4.28559e-05
2	0	0	1	1	5.2839	-0.84175	-0.841761	-0.0568622	2	-0.00120087	39	0.468	4.78644e-05
2	0	0	1	1	5.3039	-0.851749	-0.851757	-0.0629994	2	-0.00120206	39	0.488	5.36602e-05
2	0	0	1	1	5.3239	-0.861747	-0.861762	-0.0665243	2	-0.00120334	39	0.508	5.73282e-05
2	0	0	1	1	5.3439	-0.871745	-0.871748	-0.0695554	2	-0.0012047	39	0.528	6.06348e-05
2	0	0	1	1	5.3639	-0.881743	-0.881756	-0.0729986	2	-0.00120614	39	0.548	6.4367e-05
2	0	0	1	1	5.3839	-0.891742	-0.891753	-0.0776922	2	-0.00120766	39	0.568	6.92822e-05
2	0	0	1	1	5.4039	-0.90174	-0.90175	-0.0824192	2	-0.00120925	39	0.588	7.43215e-05
2	0	0	1	1	5.4239	-0.911738	-0.911762	-0.085578	2	-0.00121092	39	0.608	7.80267e-05
2	0	0	1	1	5.4439	-0.921736	-0.921746	-0.0877347	2	-0.00121265	39	0.628	8.08692e-05
2	0	0	1	1	5.4639	-0.931735	-0.931753	-0.0903361	2	-0.00121445	39	0.648	8.41709e-05
2	0	0	1	1	5.4839	-0.941733	-0.941745	-0.0959608	2	-0.00121632	39	0.668	9.03706e-05
2	0	0	1	1	5.5039	-0.951731	-0.951737	-0.10226	2	-0.00121829	39	0.688	9.73243e-05
2	0	0	1	1	5.5239	-0.961729	-0.961752	-0.107073	2	-0.00122036	39	0.708	0.000102978
2	0	0	1	1	5.5439	-0.971727	-0.971751	-0.113026	2	-0.00122256	39	0.728	0.000109833
2	0	0	1	1	5.5639	-0.981726	-0.98172	-0.121474	2	-0.00122491	39	0.748	0.000119254
2	0	0	1	1	5.5839	-0.991724	-0.991736	-0.134062	2	-0.00122748	39	0.768	0.000132954
2	0	0	1	1	5.6039	-1.00172	-1.00172	-0.150602	2	-0.00123032	39	0.788	0.00015086
2	0	0	1	1	5.6239	-1.01172	-1.01173	-0.168421	2	-0.00123349	39	0.808	0.000170396
2	0	0	1	1	5.6439	-1.02172	-1.02172	-0.187947	2	-0.00123705	39	0.828	0.000192029
2	0	0	1	1	5.6639	-1.03172	-1.03171	-0.210632	2	-0.00124105	39	0.848	0.00021731
2	0	0	1	1	5.6839	-1.04172	-1.04169	-0.235227	2	-0.00124552	39	0.868	0.000245034
2	0	0	1	1	5.7039	-1.05171	-1.05171	-0.262649	2	-0.00125049	39	0.888	0.000276229
2	0	0	1	1	5.7239	-1.06171	-1.0617	-0.298131	2	-0.00125606	39	0.908	0.000316527
2	0	0	1	1	5.7439	-1.07171	-1.0717	-0.342667	2	-0.00126246	39	0.928	0.000367234
2	0	0	1	1	5.7639	-1.08171	-1.08169	-0.375724	2	-0.00126972	39	0.948	0.000406418
2	0	0	1	1	5.7839	-1.09171	-1.09169	-0.370942	2	-0.00127726	39	0.968	0.000404953
2	0	0	1	1	5.8039	-1.1017	-1.10169	-0.355565	2	-0.0012845	39	0.988	0.000391723
2	0	0	1	1	5.8239	-1.1117	-1.11172	-0.357504	2	-0.00129159	39	1.008	0.000397444
2	0	0	1	1	5.8439	-1.1217	-1.12168	-0.372984	2	-0.00129887	39	1.028	0.000418368
2	0	0	1	1	5.8639	-1.1317	-1.1317	-0.396361	2	-0.00130656	39	1.048	0.00044856
2	0	0	1	1	5.8839	-1.1417	-1.14171	-0.428744	2	-0.00131482	39	1.068	0.000489501
2	0	0	1	1	5.904	-1.1518	-1.15178	-0.472996	2	-0.00132386	39	1.0881	0.000544788
2	0	0	1	1	5.9241	-1.16189	-1.16187	-0.52129	2	-0.00133381	39	1.1082	0.000605671
2	0	0	1	1	5.9441	-1.17189	-1.17188	-0.573983	2	-0.00134476	39	1.1282	0.000672638
2	0	0	1	1	5.9641	-1.18189	-1.18189	-0.627849	2	-0.0013568	39	1.1482	0.000742045
2	0	0	1	1	5.9841	-1.19189	-1.19188	-0.676805	2	-0.00136989	39	1.1682	0.000806667
2	0	0	1	1	6.0041	-1.20189	-1.20188	-0.720503	2	-0.00138388	39	1.1882	0.000865957
2	0	0	1	1	6.0241	-1.21189	-1.21188	-0.761313	2	-0.00139868	39	1.2082	0.000922616
2	0	0	1	1	6.0441	-1.22188	-1.22188	-0.799533	2	-0.00141428	39	1.2282	0.000976931
2	0	0	1	1	6.0641	-1.23188	-1.23187	-0.842895	2	-0.00143072	39	1.2482	0.00103834
2	0	0	1	1	6.0841	-1.24188	-1.24189	-0.893069	2	-0.0014481	39	1.2682	0.00110909
2	0	0	1	1	6.1041	-1.25188	-1.25188	-0.955639	2	-0.00146657	39	1.2882	0.00119635
2	0	0	1	1	6.1241	-1.26188	-1.26182	-1.0215	2	-0.0014863	39	1.3082	0.00128895
2	0	0	1	1	6.1441	-1.27187	-1.27185	-1.09891	2	-0.00150752	39	1.3282	0.00139765
2	0	0	1	1	6.1641	-1.28187	-1.28185	-1.20605	2	-0.00153055	39	1.3482	0.00154597
2	0	0	1	1	6.1841	-1.29187	-1.29182	-1.36154	2	-0.00155612	39	1.3682	0.00175887
2	0	0	1	1	6.2041	-1.30187	-1.30185	-1.59704	2	-0.00158565	39	1.3882	0.0020791
2	0	0	1	1	6.2241	-1.31187	-1.31186	-1.88673	2	-0.00162041	39	1.4082	0.00247512
2	0	0	1	1	6.2441	-1.32187	-1.32186	-2.20627	2	-0.00166129	39	1.4282	0.00291637
2	0	0	1	1	6.2641	-1.33186	-1.33186	-2.56056	2	-0.00170898	39	1.4482	0.00341032
2	0	0	1	1	6.2841	-1.34186	-1.34184	-2.90346	2	-0.00176361	39	1.4682	0.00389598
2	0	0	1	1	6.3006	-1.35011	-1.3501	-3.20563	2	-0.00181411	39	1.4847	0.00432793
2	0	0	1	0	6.3181	-1.34136	-1.34136	-3.02946	3	-0.00186896	39	1.5022	0.00406358
2	0	0	1	0	6.3381	-1.33136	-1.33137	-2.65371	3	-0.00192568	39	1.5222	0.00353307
2	0	0	1	0	6.3581	-1.32137	-1.32136	-2.31731	3	-0.00197528	39	1.5422	0.00306201
2	0	0	1	0	6.3781	-1.31137	-1.31136	-2.01229	3	-0.00201844	39	1.5622	0.00263884
2	0	0	1	0	6.3981	-1.30137	-1.30136	-1.72562	3	-0.00205568	39	1.5822	0.00224565
2	0	0	1	0	6.4181	-1.29137	-1.29133	-1.46443	3	-0.00208753	39	1.6022	0.00189108
2	0	0	1	0	6.4381	-1.28137	-1.28139	-1.22571	3	-0.00211433	39	1.6222	0.0015706
2	0	0	1	0	6.4581	-1.27137	-1.27138	-1.01691	3	-0.00213668	39	1.6422	0.00129287
2	0	0	1	0	6.4781	-1.26138	-1.26139	-0.847765	3	-0.00215521	39	1.6622	0.00106936
2	0	0	1	0	6.4981	-1.25138	-1.25138	-0.708456	3	-0.00217073	39	1.6822	0.000886549
2	0	0	1	0	6.5181	-1.24138	-1.24141	-0.592986	3	-0.0021837	39	1.7022	0.000736135
2	0	0	1	0	6.5381	-1.23138	-1.23141	-0.499463	3	-0.00219456	39	1.7222	0.000615044
2	0	0	1	0	6.5581	-1.22138	-1.22138	-0.419553	3	-0.00220369	39	1.7422	0.000512435
2	0	0	1	0	6.5781	-1.21139	-1.21139	-0.353568	3	-0.00221139	39	1.7622	0.000428307
2	0	0	1	0	6.5981	-1.20139	-1.20139	-0.295953	3	-0.00221787	39	1.7822	0.000355556
2	0	0	1	0	6.6181	-1.19139	-1.1914	-0.251041	3	-0.00222334	39	1.8022	0.000299089
2	0	0	1	0	6.6381	-1.18139	-1.18139	-0.211594	3	-0.00222794	39	1.8222	0.000249976
2	0	0	1	0	6.6581	-1.17139	-1.17138	-0.17504	3	-0.00223177	39	1.8422	0.000205038
2	0	0	1	0	6.6781	-1.16139	-1.16139	-0.142691	3	-0.00223493	39	1.8622	0.00016572
2	0	0	1	0	6.6983	-1.15121	-1.15119	-0.111003	3	-0.00223752	39	1.8824	0.000127785
2	0	0	1	0	6.7183	-1.1412	-1.1412	-0.0879219	3	-0.00223953	39	1.9024	0.000100337
2	0	0	1	0	6.7383	-1.1312	-1.13119	-0.0648139	3	-0.00224103	39	1.9224	7.33165e-05
2	0	0	1	0	6.7583	-1.1212	-1.12118	-0.0407501	3	-0.00224207	39	1.9424	4.56881e-05
2	0	0	1	0	6.7783	-1.1112	-1.11119	-0.0168011	3	-0.00224264	39	1.9624	1.86692e-05
2	1	0	1	0	6.7983	-1.1012	-1.10121	0.00428239	3	-0.00224278	39	0.002	-4.71579e-06
2	1	0	1	0	6.8183	-1.09121	-1.09121	0.0228494	3	-0.00224253	39	0.022	-2.49336e-05
2	1	0	1	0	6.8383	-1.08121	-1.08122	0.0401564	3	-0.00224188	39	0.042	-4.34178e-05
2	1	0	1	0	6.8583	-1.07121	-1.07122	0.0596332	3	-0.00224086	39	0.062	-6.38804e-05
2	1	0	1	0	6.8783	-1.06121	-1.06124	0.0806814	3	-0.00223946	39	0.082	-8.56219e-05
2	1	0	1	0	6.8983	-1.05121	-1.05124	0.102011	3	-0.00223765	39	0.102	-0.000107238
2	1	0	1	0	6.9183	-1.04122	-1.04126	0.123996	3	-0.00223541	39	0.122	-0.000129112
2	1	0	1	0	6.9383	-1.03122	-1.03126	0.149856	3	-0.00223267	39	0.142	-0.00015454
2	1	0	1	0	6.9583	-1.02122	-1.02125	0.183588	3	-0.00222932	39	0.162	-0.000187489
2	1	0	1	0	6.9783	-1.01122	-1.01126	0.225358	3	-0.00222523	39	0.182	-0.000227895
2	1	0	1	0	6.9983	-1.00122	-1.00124	0.270769	3	-0.00222028	39	0.202	-0.000271106
2	1	0	1	0	7.0183	-0.991224	-0.99123	0.306725	3	-0.00221449	39	0.222	-0.000304035
2	1	0	1	0	7.0383	-0.981226	-0.981252	0.323588	3	-0.00220815	39	0.242	-0.000317521
2	1	0	1	0	7.0583	-0.971228	-0.971251	0.327039	3	-0.0022016	39	0.262	-0.000317637
2	1	0	1	0	7.0783	-0.961229	-0.961244	0.324696	3	-0.00219507	39	0.282	-0.000312112
2	1	0	1	0	7.0983	-0.951231	-0.951269	0.328321	3	-0.00218857	39	0.302	-0.000312322
2	1	0	1	0	7.1183	-0.941233	-0.941266	0.33835	3	-0.00218193	39	0.322	-0.000318477
2	1	0	1	0	7.1383	-0.931235	-0.931273	0.354508	3	-0.00217501	39	0.342	-0.000330144
2	1	0	1	0	7.1583	-0.921236	-0.921252	0.378024	3	-0.00216767	39	0.362	-0.000348255
2	1	0	1	0	7.1783	-0.911238	-0.911258	0.406993	3	-0.00215982	39	0.382	-0.000370875
2	1	0	1	0	7.1983	-0.90124	-0.901223	0.43906	3	-0.00215137	39	0.402	-0.000395691
2	1	0	1	0	7.2183	-0.891242	-0.891264	0.471671	3	-0.00214228	39	0.422	-0.000420383
2	1	0	1	0	7.2383	-0.881243	-0.881233	0.504528	3	-0.00213251	39	0.442	-0.000444607
2	1	0	1	0	7.2583	-0.871245	-0.871255	0.536594	3	-0.00212208	39	0.462	-0.00046751
2	1	0	1	0	7.2783	-0.861247	-0.861263	0.566492	3	-0.00211103	39	0.482	-0.000487899
2	1	0	1	0	7.2983	-0.851249	-0.851263	0.589237	3	-0.00209948	39	0.502	-0.000501595
2	1	0	1	0	7.3183	-0.84125	-0.841281	0.599223	3	-0.0020876	39	0.522	-0.000504114
2	1	0	1	0	7.3383	-0.831252	-0.831262	0.601215	3	-0.00207558	39	0.542	-0.000499767
2	1	0	1	0	7.3583	-0.821254	-0.821277	0.597413	3	-0.00206356	39	0.562	-0.000490641
2	1	0	1	0	7.3783	-0.811256	-0.811286	0.589567	3	-0.00205168	39	0.582	-0.000478308
2	1	0	1	0	7.3983	-0.801258	-0.801289	0.579826	3	-0.00203999	39	0.602	-0.000464609
2	1	0	1	0	7.4183	-0.791259	-0.791285	0.565936	3	-0.00202855	39	0.622	-0.000447817
2	1	0	1	0	7.4383	-0.781261	-0.781291	0.550265	3	-0.00201738	39	0.642	-0.000429917
2	1	0	1	0	7.4583	-0.771263	-0.77129	0.536583	3	-0.0020065	39	0.662	-0.000413861
2	1	0	1	0	7.4783	-0.761265	-0.76129	0.524215	3	-0.00199589	39	0.682	-0.000399079
2	1	0	1	0	7.4983	-0.751266	-0.751295	0.510778	3	-0.00198556	39	0.702	-0.000383745
2	1	0	1	0	7.5183	-0.741268	-0.741287	0.496588	3	-0.00197549	39	0.722	-0.000368114
2	1	0	1	0	7.5383	-0.73127	-0.731282	0.482229	3	-0.0019657	39	0.742	-0.000352646
2	1	0	1	0	7.5583	-0.721272	-0.721307	0.46788	3	-0.0019562	39	0.762	-0.000337485
2	1	0	1	0	7.5783	-0.711273	-0.711275	0.455933	3	-0.00194696	39	0.782	-0.000324294
2	1	0	1	0	7.5983	-0.701275	-0.701282	0.444442	3	-0.00193797	39	0.802	-0.000311679
2	1	0	1	0	7.6183	-0.691277	-0.691279	0.431224	3	-0.00192922	39	0.822	-0.000298096
2	1	0	1	0	7.6383	-0.681279	-0.681273	0.419421	3	-0.00192071	39	0.842	-0.00028574
2	1	0	1	0	7.6583	-0.67128	-0.671318	0.410054	3	-0.00191241	39	0.862	-0.000275276
2	1	0	1	0	7.6783	-0.661282	-0.661325	0.402611	3	-0.00190428	39	0.882	-0.000266257
2	1	0	1	0	7.6983	-0.651284	-0.651296	0.396427	3	-0.00189631	39	0.902	-0.000258191
2	1	0	1	0	7.7183	-0.641286	-0.641292	0.389149	3	-0.00188847	39	0.922	-0.000249558
2	1	0	1	0	7.7383	-0.631288	-0.631312	0.382697	3	-0.00188074	39	0.942	-0.000241601
2	1	0	1	0	7.7583	-0.621289	-0.621304	0.379819	3	-0.0018731	39	0.962	-0.000235983
2	1	0	1	0	7.7783	-0.611291	-0.611305	0.37815	3	-0.00186552	39	0.982	-0.000231165
2	1	0	1	0	7.7983	-0.601293	-0.601328	0.37611	3	-0.00185799	39	1.002	-0.000226166
2	1	0	1	0	7.8183	-0.591294	-0.591308	0.373458	3	-0.0018505	39	1.022	-0.000220828
2	1	0	1	0	7.8385	-0.581096	-0.581099	0.371315	3	-0.00184297	39	1.0422	-0.000215771
2	1	0	1	0	7.8585	-0.571098	-0.571111	0.370161	3	-0.00183553	39	1.0622	-0.000211403
2	1	0	1	0	7.8785	-0.5611	-0.561135	0.369441	3	-0.00182813	39	1.0822	-0.000207306
2	1	0	1	0	7.8985	-0.551102	-0.551129	0.367837	3	-0.00182077	39	1.1022	-0.000202726
2	1	0	1	0	7.9185	-0.541103	-0.541122	0.363921	3	-0.00181346	39	1.1222	-0.000196926
2	1	0	1	0	7.9385	-0.531105	-0.531145	0.358853	3	-0.00180622	39	1.1422	-0.000190603
2	1	0	1	0	7.9585	-0.521107	-0.521119	0.355064	3	-0.00179907	39	1.1622	-0.000185031
2	1	0	1	0	7.9785	-0.511109	-0.511141	0.350224	3	-0.00179201	39	1.1822	-0.000179014
2	1	0	1	0	7.9985	-0.50111	-0.50113	0.344912	3	-0.00178507	39	1.2022	-0.000172846
2	1	0	1	0	8.0185	-0.491112	-0.491106	0.338116	3	-0.00177824	39	1.2222	-0.000166051
2	1	0	1	0	8.0385	-0.481114	-0.481134	0.33033	3	-0.00177155	39	1.2422	-0.000158933
2	1	0	1	0	8.0585	-0.471116	-0.471131	0.324691	3	-0.00176499	39	1.2622	-0.000152972
2	1	0	1	0	8.0785	-0.461117	-0.461138	0.319097	3	-0.00175855	39	1.2822	-0.000147148
2	1	0	1	0	8.0985	-0.451119	-0.451119	0.313851	3	-0.00175223	39	1.3022	-0.000141584
2	1	0	1	0	8.1185	-0.441121	-0.441144	0.307054	3	-0.00174603	39	1.3222	-0.000135455
2	1	0	1	0	8.1385	-0.431123	-0.431151	0.300545	3	-0.00173994	39	1.3422	-0.00012958
2	1	0	1	0	8.1585	-0.421124	-0.421166	0.295874	3	-0.00173397	39	1.3622	-0.000124612
2	1	0	1	0	8.1785	-0.411126	-0.411163	0.292159	3	-0.0017281	39	1.3822	-0.000120125
2	1	0	1	0	8.1985	-0.401128	-0.401174	0.288061	3	-0.0017223	39	1.4022	-0.000115563
2	1	0	1	0	8.2185	-0.39113	-0.391164	0.283185	3	-0.0017166	39	1.4222	-0.000110772
2	1	0	1	0	8.2385	-0.381132	-0.381142	0.278515	3	-0.00171097	39	1.4422	-0.000106154
2	1	0	1	0	8.2585	-0.371133	-0.371164	0.275734	3	-0.00170542	39	1.4622	-0.000102343
2	1	0	1	0	8.2785	-0.361135	-0.361152	0.273836	3	-0.00169992	39	1.4822	-9.88963e-05
2	1	0	1	0	8.2985	-0.351137	-0.351173	0.271282	3	-0.00169448	39	1.5022	-9.52671e-05
2	1	0	1	0	8.3185	-0.341139	-0.341178	0.268322	3	-0.00168909	39	1.5222	-9.15457e-05
2	1	0	1	0	8.3385	-0.33114	-0.331185	0.264326	3	-0.00168376	39	1.5422	-8.75408e-05
2	1	0	1	0	8.3585	-0.321142	-0.321178	0.262991	3	-0.00167847	39	1.5622	-8.44668e-05
2	1	0	1	0	8.3785	-0.311144	-0.311183	0.262329	3	-0.00167322	39	1.5822	-8.16325e-05
2	1	0	1	0	8.3985	-0.301146	-0.301189	0.260491	3	-0.00166799	39	1.6022	-7.8457e-05
2	1	0	1	0	8.4121	-0.305645	-0.305665	0.207387	3	-0.00166492	39	1.6158	-6.33912e-05
2	1	0	1	0	8.4321	-0.315643	-0.31566	0.183662	3	-0.00166104	39	1.6358	-5.79747e-05
2	1	0	1	0	8.4521	-0.325641	-0.325683	0.165044	3	-0.00165756	39	1.6558	-5.3752e-05
2	1	0	1	0	8.4721	-0.33564	-0.335675	0.149243	3	-0.00165442	39	1.6758	-5.00972e-05
2	1	0	1	0	8.4921	-0.345638	-0.345664	0.136431	3	-0.00165156	39	1.6958	-4.71592e-05
2	1	0	1	0	8.5121	-0.355636	-0.35567	0.126348	3	-0.00164893	39	1.7158	-4.49381e-05
2	1	0	1	0	8.5321	-0.365634	-0.36568	0.116947	3	-0.00164651	39	1.7358	-4.27653e-05
2	1	0	1	0	8.5521	-0.375632	-0.37567	0.107084	3	-0.00164428	39	1.7558	-4.02282e-05
2	1	0	1	0	8.5721	-0.385631	-0.385653	0.098169	3	-0.00164222	39	1.7758	-3.78592e-05
2	1	0	1	0	8.5921	-0.395629	-0.395658	0.0913301	3	-0.00164031	39	1.7958	-3.61355e-05
2	1	0	1	0	8.6121	-0.405627	-0.405664	0.08564	3	-0.00163854	39	1.8158	-3.4741e-05
2	1	0	1	0	8.6321	-0.415625	-0.415668	0.080253	3	-0.0016369	39	1.8358	-3.33586e-05
2	1	0	1	0	8.6521	-0.425624	-0.425671	0.0735906	3	-0.00163537	39	1.8558	-3.13254e-05
2	1	0	1	0	8.6721	-0.435622	-0.435675	0.0676695	3	-0.00163395	39	1.8758	-2.94819e-05
2	1	0	1	0	8.6921	-0.44562	-0.445661	0.0633288	3	-0.00163263	39	1.8958	-2.82232e-05
2	1	0	1	0	8.7121	-0.455618	-0.455669	0.059362	3	-0.0016314	39	1.9158	-2.70494e-05
2	1	0	1	0	8.7321	-0.465617	-0.465667	0.0552818	3	-0.00163026	39	1.9358	-2.57429e-05
2	1	0	1	0	8.7521	-0.475615	-0.475666	0.0508197	3	-0.0016292	39	1.9558	-2.41732e-05
2	1	0	1	0	8.7721	-0.485613	-0.485656	0.0465312	3	-0.00162822	39	1.9758	-2.25981e-05
2	1	0	1	0	8.7921	-0.495611	-0.495635	0.043063	3	-0.00162731	39	1.9958	-2.13435e-05
2	1	0	1	0	8.8121	-0.50561	-0.505625	0.0408834	3	-0.00162648	39	2.0158	-2.06717e-05
2	1	0	1	0	8.8321	-0.515608	-0.515646	0.0382134	3	-0.0016257	39	2.0358	-1.97046e-05
2	1	0	1	0	8.8521	-0.525606	-0.525652	0.0343893	3	-0.00162498	39	2.0558	-1.80768e-05
2	1	0	1	0	8.8721	-0.535604	-0.535653	0.0304303	3	-0.00162433	39	2.0758	-1.63001e-05
2	1	0	1	0	8.8921	-0.545603	-0.545626	0.0282299	3	-0.00162372	39	2.0958	-1.54029e-05
2	1	0	1	0	8.9121	-0.555601	-0.555623	0.0267808	3	-0.00162317	39	2.1158	-1.488e-05
2	1	0	1	0	8.9321	-0.565599	-0.565636	0.0247033	3	-0.00162266	39	2.1358	-1.39731e-05
2	1	0	1	0	8.9521	-0.575597	-0.575636	0.0215514	3	-0.00162221	39	2.1558	-1.24058e-05
2	1	0	1	0	8.9723	-0.585795	-0.585809	0.0183141	3	-0.0016218	39	2.176	-1.07286e-05
2	1	0	1	0	8.9923	-0.595794	-0.595827	0.0166602	3	-0.00162144	39	2.196	-9.9266e-06
2	1	0	1	0	9.0123	-0.605792	-0.605836	0.0156636	3	-0.00162112	39	2.216	-9.48958e-06
2	1	0	1	0	9.0323	-0.61579	-0.615841	0.0144215	3	-0.00162083	39	2.236	-8.88138e-06
2	1	0	1	0	9.0523	-0.625789	-0.625832	0.011427	3	-0.00162058	39	2.256	-7.1514e-06
2	1	0	1	0	9.0723	-0.635787	-0.635832	0.00893015	3	-0.00162037	39	2.276	-5.67808e-06
2	1	0	1	0	9.0923	-0.645785	-0.645821	0.00753661	3	-0.00162019	39	2.296	-4.86731e-06
2	1	0	1	0	9.1123	-0.655783	-0.655832	0.00701902	3	-0.00162005	39	2.316	-4.6033e-06
2	1	0	1	0	9.1323	-0.665781	-0.665806	0.00574865	3	-0.00161993	39	2.336	-3.82749e-06
2	1	0	1	0	9.1523	-0.67578	-0.675794	0.00315056	3	-0.00161985	39	2.356	-2.12913e-06
2	1	0	1	0	9.1723	-0.685778	-0.685799	0.000586116	3	-0.0016198	39	2.376	-4.01958e-07
2	0	0	1	0	9.1923	-0.695776	-0.695788	-0.00125314	3	-0.0016198	39	0.004	8.71918e-07
2	0	0	1	0	9.2123	-0.705774	-0.705791	-0.00187437	3	-0.00161983	39	0.024	1.32291e-06
2	0	0	1	0	9.2323	-0.715773	-0.71582	-0.00361729	3	-0.00161989	39	0.044	2.58933e-06
2	0	0	1	0	9.2523	-0.725771	-0.725789	-0.00576187	3	-0.00162	39	0.064	4.18191e-06
2	0	0	1	0	9.2723	-0.735769	-0.735808	-0.00978426	3	-0.00162014	39	0.084	7.19934e-06
2	0	0	1	0	9.2923	-0.745767	-0.745788	-0.011999	3	-0.00162034	39	0.104	8.94875e-06
2	0	0	1	0	9.3123	-0.755766	-0.755786	-0.0133709	3	-0.00162059	39	0.124	1.01056e-05
2	0	0	1	0	9.3323	-0.765764	-0.765794	-0.0155886	3	-0.00162089	39	0.144	1.19377e-05
2	0	0	1	0	9.3523	-0.775762	-0.775789	-0.0197376	3	-0.00162126	39	0.164	1.53122e-05
2	0	0	1	0	9.3723	-0.78576	-0.785779	-0.0240668	3	-0.00162169	39	0.184	1.89112e-05
2	0	0	1	0	9.3923	-0.795758	-0.795763	-0.027949	3	-0.00162219	39	0.204	2.22407e-05
2	0	0	1	0	9.4123	-0.805757	-0.805778	-0.0312433	3	-0.00162278	39	0.224	2.51752e-05
2	0	0	1	0	9.4323	-0.815755	-0.81577	-0.0351269	3	-0.00162345	39	0.244	2.86555e-05
2	0	0	1	0	9.4523	-0.825753	-0.825784	-0.041087	3	-0.00162422	39	0.264	3.3929e-05
2	0	0	1	0	9.4723	-0.835751	-0.8358	-0.0474961	3	-0.0016251	39	0.284	3.96972e-05
2	0	0	1	0	9.4923	-0.84575	-0.845772	-0.0528945	3	-0.00162609	39	0.304	4.47367e-05
2	0	0	1	0	9.5123	-0.855748	-0.855739	-0.0570129	3	-0.00162718	39	0.324	4.87882e-05
2	0	0	1	0	9.5323	-0.865746	-0.865759	-0.0615653	3	-0.00162838	39	0.344	5.33007e-05
2	0	0	1	0	9.5523	-0.875744	-0.875748	-0.0670056	3	-0.00162968	39	0.364	5.868e-05
2	0	0	1	0	9.5723	-0.885743	-0.885775	-0.072994	3	-0.00163108	39	0.384	6.46563e-05
2	0	0	1	0	9.5923	-0.895741	-0.895757	-0.0772928	3	-0.00163256	39	0.404	6.92355e-05
2	0	0	1	0	9.6123	-0.905739	-0.90573	-0.0796664	3	-0.00163412	39	0.424	7.21562e-05
2	0	0	1	0	9.6323	-0.915737	-0.915748	-0.082527	3	-0.00163576	39	0.444	7.55739e-05
2	0	0	1	0	9.6523	-0.925736	-0.925754	-0.0874865	3	-0.00163747	39	0.464	8.0991e-05
2	0	0	1	0	9.6723	-0.935734	-0.935774	-0.0929635	3	-0.00163927	39	0.484	8.69928e-05
2	0	0	1	0	9.6923	-0.945732	-0.945748	-0.0970235	3	-0.00164114	39	0.504	9.17598e-05
2	0	0	1	0	9.7123	-0.95573	-0.955732	-0.100756	3	-0.00164312	39	0.524	9.62954e-05
2	0	0	1	0	9.7323	-0.965728	-0.965738	-0.10646	3	-0.0016452	39	0.544	0.000102813
2	0	0	1	0	9.7523	-0.975727	-0.975742	-0.1152	3	-0.00164743	39	0.564	0.000112406
2	0	0	1	0	9.7723	-0.985725	-0.985743	-0.12635	3	-0.00164983	39	0.584	0.000124549
2	0	0	1	0	9.7923	-0.995723	-0.995736	-0.138568	3	-0.00165246	39	0.604	0.000137977
2	0	0	1	0	9.8123	-1.00572	-1.00574	-0.151883	3	-0.00165535	39	0.624	0.000152756
2	0	0	1	0	9.8323	-1.01572	-1.01572	-0.168751	3	-0.00165856	39	0.644	0.000171403
2	0	0	1	0	9.8523	-1.02572	-1.02572	-0.19028	3	-0.00166216	39	0.664	0.000195175
2	0	0	1	0	9.8723	-1.03572	-1.03576	-0.21738	3	-0.00166622	39	0.684	0.000225152
2	0	0	1	0	9.8923	-1.04571	-1.04573	-0.247657	3	-0.00167084	39	0.704	0.000258982
2	0	0	1	0	9.9123	-1.05571	-1.05574	-0.285048	3	-0.00167614	39	0.724	0.000300937
2	0	0	1	0	9.9323	-1.06571	-1.06574	-0.33763	3	-0.00168236	39	0.744	0.000359826
2	0	0	1	0	9.9523	-1.07571	-1.0757	-0.40406	3	-0.00168978	39	0.764	0.000434647
2	0	0	1	0	9.9723	-1.08571	-1.0857	-0.459913	3	-0.00169848	39	0.784	0.00049933
2	0	0	1	0	9.9923	-1.09571	-1.09569	-0.471333	3	-0.00170785	39	0.804	0.000516437
2	0	0	1	0	10.0123	-1.1057	-1.10569	-0.45339	3	-0.0017171	39	0.824	0.000501307
2	0	0	1	0	10.0323	-1.1157	-1.1157	-0.43386	3	-0.00172597	39	0.844	0.000484058
2	0	0	1	0	10.0523	-1.1257	-1.12569	-0.424967	3	-0.00173454	39	0.864	0.000478382
2	0	0	1	0	10.0723	-1.1357	-1.13569	-0.430083	3	-0.00174307	39	0.884	0.00048844
2	0	0	1	0	10.0923	-1.1457	-1.14569	-0.440862	3	-0.00175175	39	0.904	0.000505089
2	0	0	1	0	10.1125	-1.15589	-1.1559	-0.45563	3	-0.00176079	39	0.9242	0.000526662
2	0	0	1	0	10.1325	-1.16589	-1.16589	-0.473562	3	-0.00177009	39	0.9442	0.000552123
2	0	0	1	0	10.1525	-1.17589	-1.1759	-0.488028	3	-0.00177972	39	0.9642	0.000573875
2	0	0	1	0	10.1725	-1.18589	-1.18589	-0.499401	3	-0.00178959	39	0.9842	0.000592235
2	0	0	1	0	10.1925	-1.19589	-1.19586	-0.505794	3	-0.00179962	39	1.0042	0.000604861
2	0	0	1	0	10.2125	-1.20589	-1.20589	-0.509536	3	-0.00180976	39	1.0242	0.000614443
2	0	0	1	0	10.2325	-1.21588	-1.21588	-0.518569	3	-0.00182004	39	1.0442	0.000630519
2	0	0	1	0	10.2525	-1.22588	-1.2259	-0.533536	3	-0.00183057	39	1.0642	0.00065406
2	0	0	1	0	10.2725	-1.23588	-1.23588	-0.555526	3	-0.00184144	39	1.0842	0.000686561
2	0	0	1	0	10.2925	-1.24588	-1.24588	-0.584044	3	-0.00185281	39	1.1042	0.000727645
2	0	0	1	0	10.3125	-1.25588	-1.25588	-0.619813	3	-0.00186481	39	1.1242	0.000778409
2	0	0	1	0	10.3325	-1.26588	-1.26589	-0.669436	3	-0.00187769	39	1.1442	0.000847431
2	0	0	1	0	10.3525	-1.27587	-1.27586	-0.737978	3	-0.00189175	39	1.1642	0.000941558
2	0	0	1	0	10.3725	-1.28587	-1.28586	-0.840603	3	-0.00190745	39	1.1842	0.0010809
2	0	0	1	0	10.3925	-1.29587	-1.29586	-0.999188	3	-0.00192577	39	1.2042	0.0012948
2	0	0	1	0	10.4125	-1.30587	-1.30587	-1.21771	3	-0.00194784	39	1.2242	0.00159017
2	0	0	1	0	10.4325	-1.31587	-1.31585	-1.4619	3	-0.00197453	39	1.2442	0.00192363
2	0	0	1	0	10.4525	-1.32587	-1.32585	-1.70951	3	-0.00200618	39	1.2642	0.00226655
2	0	0	1	0	10.4725	-1.33586	-1.33583	-2.01548	3	-0.00204329	39	1.2842	0.00269235
2	0	0	1	0	10.4925	-1.34586	-1.34584	-2.36904	3	-0.00208693	39	1.3042	0.00318835
2	0	0	1	1	10.5065	-1.34736	-1.34739	-2.47519	3	-0.00212145	39	1.3182	0.00333504
2	0	0	1	1	10.5265	-1.33736	-1.33735	-2.21241	3	-0.00216875	39	1.3382	0.00295875
2	0	0	1	1	10.5465	-1.32736	-1.32734	-1.90393	3	-0.00220985	39	1.3582	0.00252716
2	0	0	1	1	10.5665	-1.31737	-1.31735	-1.63044	3	-0.00224514	39	1.3782	0.00214786
2	0	0	1	1	10.5865	-1.30737	-1.30736	-1.37829	3	-0.00227523	39	1.3982	0.00180193
2	0	0	1	1	10.6065	-1.29737	-1.29736	-1.15162	3	-0.00230045	39	1.4182	0.00149407
2	0	0	1	1	10.6265	-1.28737	-1.28736	-0.953088	3	-0.00232144	39	1.4382	0.00122697
2	0	0	1	1	10.6465	-1.27737	-1.27738	-0.781744	3	-0.00233872	39	1.4582	0.000998581
2	0	0	1	1	10.6665	-1.26738	-1.26737	-0.635874	3	-0.00235285	39	1.4782	0.000805886
2	0	0	1	1	10.6865	-1.25738	-1.25735	-0.525096	3	-0.00236442	39	1.4982	0.000660231
2	0	0	1	1	10.7065	-1.24738	-1.24736	-0.434975	3	-0.00237397	39	1.5182	0.000542572
2	0	0	1	1	10.7265	-1.23738	-1.23739	-0.356086	3	-0.00238183	39	1.5382	0.000440616
2	0	0	1	1	10.7465	-1.22738	-1.22738	-0.291356	3	-0.00238826	39	1.5582	0.000357604
2	0	0	1	1	10.7665	-1.21738	-1.21738	-0.24048	3	-0.00239358	39	1.5782	0.000292756
2	0	0	1	1	10.7865	-1.20739	-1.20738	-0.200188	3	-0.00239799	39	1.5982	0.000241704
2	0	0	1	1	10.8065	-1.19739	-1.19742	-0.168513	3	-0.00240165	39	1.6182	0.00020178
2	0	0	1	1	10.8265	-1.18739	-1.1874	-0.13827	3	-0.00240468	39	1.6382	0.000164182
2	0	0	1	1	10.8465	-1.17739	-1.17739	-0.110837	3	-0.00240717	39	1.6582	0.000130499
2	0	0	1	1	10.8665	-1.16739	-1.16738	-0.0873275	3	-0.00240917	39	1.6782	0.000101944
2	0	0	1	1	10.8865	-1.15739	-1.15741	-0.0679432	3	-0.00241073	39	1.6982	7.86385e-05
2	0	0	1	1	10.9067	-1.1472	-1.14723	-0.0497904	3	-0.0024119	39	1.7184	5.71209e-05
2	0	0	1	1	10.9267	-1.1372	-1.13721	-0.0314872	3	-0.00241269	39	1.7384	3.58077e-05
2	0	0	1	1	10.9467	-1.1272	-1.12724	-0.0131322	3	-0.00241314	39	1.7584	1.48031e-05
2	1	0	1	1	10.9667	-1.1172	-1.11721	0.00373793	3	-0.00241324	39	0.002	-4.17606e-06
2	1	0	1	1	10.9867	-1.1072	-1.10718	0.017949	3	-0.00241303	39	0.022	-1.98728e-05
2	1	0	1	1	11.0067	-1.09721	-1.09724	0.0310111	3	-0.00241253	39	0.042	-3.40267e-05
2	1	0	1	1	11.0267	-1.08721	-1.08722	0.0461555	3	-0.00241174	39	0.062	-5.01814e-05
2	1	0	1	1	11.0467	-1.07721	-1.07722	0.0623494	3	-0.00241065	39	0.082	-6.71639e-05
2	1	0	1	1	11.0667	-1.06721	-1.06724	0.0781558	3	-0.00240926	39	0.102	-8.34114e-05
2	1	0	1	1	11.0867	-1.05721	-1.0572	0.093391	3	-0.00240756	39	0.122	-9.87329e-05
2	1	0	1	1	11.1067	-1.04721	-1.04722	0.110314	3	-0.00240552	39	0.142	-0.000115523
2	1	0	1	1	11.1267	-1.03722	-1.03725	0.133392	3	-0.00240306	39	0.162	-0.000138361
2	1	0	1	1	11.1467	-1.02722	-1.02724	0.163589	3	-0.00240009	39	0.182	-0.000168046
2	1	0	1	1	11.1667	-1.01722	-1.01723	0.200983	3	-0.00239647	39	0.202	-0.000204446
2	1	0	1	1	11.1867	-1.00722	-1.00722	0.241704	3	-0.00239207	39	0.222	-0.000243449
2	1	0	1	1	11.2067	-0.997223	-0.997243	0.280285	3	-0.00238683	39	0.242	-0.000279512
2	1	0	1	1	11.2267	-0.987225	-0.98725	0.306793	3	-0.00238091	39	0.262	-0.000302881
2	1	0	1	1	11.2467	-0.977226	-0.977247	0.316396	3	-0.00237463	39	0.282	-0.000309197
2	1	0	1	1	11.2667	-0.967228	-0.967239	0.313122	3	-0.00236834	39	0.302	-0.000302864
2	1	0	1	1	11.2867	-0.95723	-0.957251	0.309391	3	-0.00236214	39	0.322	-0.000296165
2	1	0	1	1	11.3067	-0.947232	-0.947252	0.314325	3	-0.00235591	39	0.342	-0.000297745
2	1	0	1	1	11.3267	-0.937234	-0.937248	0.328178	3	-0.00234947	39	0.362	-0.000307584
2	1	0	1	1	11.3467	-0.927235	-0.92727	0.349764	3	-0.00234269	39	0.382	-0.000324325
2	1	0	1	1	11.3667	-0.917237	-0.917255	0.376255	3	-0.00233545	39	0.402	-0.000345122
2	1	0	1	1	11.3867	-0.907239	-0.907266	0.403193	3	-0.00232767	39	0.422	-0.000365804
2	1	0	1	1	11.4067	-0.897241	-0.897242	0.43206	3	-0.00231931	39	0.442	-0.000387662
2	1	0	1	1	11.4267	-0.887242	-0.88727	0.464849	3	-0.00231032	39	0.462	-0.000412446
2	1	0	1	1	11.4467	-0.877244	-0.877288	0.498718	3	-0.00230067	39	0.482	-0.000437519
2	1	0	1	1	11.4667	-0.867246	-0.867258	0.530021	3	-0.00229038	39	0.502	-0.000459665
2	1	0	1	1	11.4867	-0.857248	-0.857257	0.554448	3	-0.00227954	39	0.522	-0.000475304
2	1	0	1	1	11.5067	-0.847249	-0.847233	0.570572	3	-0.00226827	39	0.542	-0.000483407
2	1	0	1	1	11.5267	-0.837251	-0.837261	0.580844	3	-0.00225672	39	0.562	-0.000486318
2	1	0	1	1	11.5467	-0.827253	-0.827263	0.585178	3	-0.00224504	39	0.582	-0.000484096
2	1	0	1	1	11.5667	-0.817255	-0.817267	0.582996	3	-0.00223336	39	0.602	-0.000476464
2	1	0	1	1	11.5867	-0.807256	-0.807253	0.575336	3	-0.00222179	39	0.622	-0.000464442
2	1	0	1	1	11.6067	-0.797258	-0.797254	0.56348	3	-0.0022104	39	0.642	-0.000449237
2	1	0	1	1	11.6267	-0.78726	-0.787294	0.551646	3	-0.00219922	39	0.662	-0.000434308
2	1	0	1	1	11.6467	-0.777262	-0.777272	0.54064	3	-0.00218829	39	0.682	-0.000420225
2	1	0	1	1	11.6667	-0.767264	-0.767301	0.528426	3	-0.00217762	39	0.702	-0.000405462
2	1	0	1	1	11.6867	-0.757265	-0.757278	0.513301	3	-0.00216722	39	0.722	-0.000388712
2	1	0	1	1	11.7067	-0.747267	-0.747289	0.497861	3	-0.0021571	39	0.742	-0.000372046
2	1	0	1	1	11.7267	-0.737269	-0.737292	0.48451	3	-0.00214726	39	0.762	-0.000357225
2	1	0	1	1	11.7467	-0.727271	-0.727285	0.472076	3	-0.00213769	39	0.782	-0.000343334
2	1	0	1	1	11.7667	-0.717272	-0.717302	0.459419	3	-0.00212838	39	0.802	-0.000329542
2	1	0	1	1	11.7867	-0.707274	-0.70728	0.446124	3	-0.00211933	39	0.822	-0.000315535
2	1	0	1	1	11.8067	-0.697276	-0.697279	0.43283	3	-0.00211053	39	0.842	-0.000301804
2	1	0	1	1	11.8267	-0.687278	-0.687303	0.421978	3	-0.00210197	39	0.862	-0.000290027
2	1	0	1	1	11.8467	-0.677279	-0.677315	0.412812	3	-0.00209362	39	0.882	-0.000279603
2	1	0	1	1	11.8667	-0.667281	-0.667317	0.40377	3	-0.00208546	39	0.902	-0.000269442
2	1	0	0	1	11.8764	-0.662432	-0.662457	0.398192	3	-0.00208158	39	0.9117	-0.000263785