File: Fig 3/Fig 3_np-Fe2O3_5mVs_1.mpt
mode	ox/red	error	control changes	counter inc.	time/s	control/V	Ewe/V	<I>/mA	cycle number	(Q-Qo)/C	I Range	step time/s	P/W
2	1	0	1	0	0.000000000000000E+000	-0.30002	-0.299809	0.0260646	1	0.0000000E+000	40	0.000000000000000E+000	-7.8144e-06
2	1	0	0	0	0.7102	-0.303571	-0.303337	0.00120741	1	2.06858e-06	40	0.6002	-3.66252e-07
2	1	0	0	0	1.5102	-0.307571	-0.307319	0.000813472	1	2.80077e-06	40	1.4002	-2.49996e-07
2	1	0	0	0	2.3102	-0.311571	-0.311345	0.000693709	1	3.35966e-06	40	2.2002	-2.15982e-07
2	1	0	1	0	3.1104	-0.315572	-0.315334	0.000549253	1	3.79623e-06	40	3.0004	-1.73198e-07
2	1	0	1	0	3.9104	-0.319572	-0.319334	0.000472226	1	4.14144e-06	40	3.8004	-1.50798e-07
2	0	0	1	0	4.7105	-0.323572	-0.323362	0.000346028	1	4.40883e-06	40	4.6005	-1.11892e-07
2	1	0	0	0	5.5106	-0.327573	-0.327339	0.000301097	1	4.59778e-06	40	5.4006	-9.85607e-08
2	1	0	0	0	6.3106	-0.331573	-0.331348	0.000178029	1	4.73408e-06	40	6.2006	-5.89896e-08
2	1	0	1	0	7.1108	-0.335573	-0.335322	9.09321e-05	1	4.78548e-06	40	7.0008	-3.04915e-08
2	0	0	1	0	7.9108	-0.339574	-0.339343	6.65094e-05	1	4.79524e-06	40	0.000000000000000E+000	-2.25695e-08
2	1	0	1	0	8.7108	-0.343574	-0.343334	2.56524e-05	1	4.76851e-06	40	0.8	-8.80734e-09
2	0	0	0	0	9.511	-0.347575	-0.347354	-6.35509e-05	1	4.68292e-06	40	1.6002	2.20747e-08
2	1	0	0	0	10.311	-0.351575	-0.351363	-8.9719e-05	1	4.55364e-06	40	2.4002	3.15239e-08
2	0	0	0	0	11.111	-0.355575	-0.355348	-0.000117433	1	4.41176e-06	40	3.2002	4.17295e-08
2	0	0	1	0	11.9112	-0.359576	-0.359349	-0.000160215	1	4.23919e-06	40	4.0004	5.75732e-08
2	0	0	1	0	12.7112	-0.363576	-0.363367	-0.00016715	1	4.04382e-06	40	4.8004	6.07369e-08
2	0	0	1	0	13.5112	-0.367576	-0.367335	-0.00024269	1	3.81695e-06	40	5.6004	8.91486e-08
2	1	0	0	0	14.3114	-0.371577	-0.371341	-0.000250022	1	3.55602e-06	40	6.4006	9.28434e-08
2	0	0	0	0	15.1114	-0.375577	-0.37533	-0.000284285	1	3.27527e-06	40	7.2006	1.06701e-07
2	1	0	1	0	15.9115	-0.379577	-0.379331	-0.000307944	1	2.9863e-06	40	8.0007	1.16813e-07
2	1	0	1	0	16.7116	-0.383578	-0.38335	-0.00032309	1	2.66382e-06	40	8.8008	1.23856e-07
2	1	0	1	0	17.5116	-0.387578	-0.387341	-0.000348432	1	2.31897e-06	40	9.6008	1.34962e-07
2	0	0	0	0	18.3118	-0.391579	-0.391329	-0.000372157	1	1.95942e-06	40	10.401	1.45636e-07
2	1	0	0	0	19.1118	-0.395579	-0.39535	-0.000387827	1	1.58403e-06	40	11.201	1.53327e-07
2	0	0	0	0	19.9118	-0.399579	-0.399354	-0.000405059	1	1.19111e-06	40	12.001	1.61762e-07
2	0	0	1	0	20.712	-0.40358	-0.403339	-0.000405432	1	7.96086e-07	40	12.8012	1.63526e-07
2	0	0	1	0	21.512	-0.40758	-0.407331	-0.000409614	1	4.05314e-07	40	13.6012	1.66849e-07
2	1	0	1	0	22.312	-0.41158	-0.411334	-0.00043398	1	-6.5934e-09	40	14.4012	1.78511e-07
2	1	0	0	0	23.1122	-0.415581	-0.415349	-0.000471015	1	-4.39272e-07	40	15.2014	1.95636e-07
2	0	0	0	0	23.9122	-0.419581	-0.419345	-0.000458806	1	-8.81592e-07	40	16.0014	1.92398e-07
2	0	0	1	0	24.7123	-0.423582	-0.423359	-0.000481357	1	-1.33604e-06	40	16.8015	2.03787e-07
2	0	0	1	0	25.5124	-0.427582	-0.427342	-0.000480319	1	-1.7984e-06	40	17.6016	2.05261e-07
2	0	0	1	0	26.3124	-0.431582	-0.431336	-0.000509428	1	-2.27468e-06	40	18.4016	2.19735e-07
2	1	0	0	0	27.1126	-0.435582	-0.435345	-0.00052186	1	-2.75244e-06	40	19.2018	2.27189e-07
2	0	0	0	0	27.9126	-0.439583	-0.439335	-0.000535719	1	-3.24417e-06	40	20.0018	2.3536e-07
2	0	0	0	0	28.7126	-0.443583	-0.443337	-0.000547168	1	-3.75325e-06	40	20.8018	2.4258e-07
2	0	0	1	0	29.5128	-0.447584	-0.447344	-0.000564959	1	-4.27112e-06	40	21.602	2.52731e-07
2	0	0	1	0	30.3128	-0.451584	-0.451354	-0.00056168	1	-4.78751e-06	40	22.402	2.53517e-07
2	0	0	1	0	31.1128	-0.455584	-0.455372	-0.000582593	1	-5.31979e-06	40	23.202	2.65296e-07
2	1	0	0	0	31.913	-0.459585	-0.459363	-0.000584989	1	-5.86183e-06	40	24.0022	2.68722e-07
2	0	0	0	0	32.713	-0.463585	-0.463378	-0.000597379	1	-6.41252e-06	40	24.8022	2.76812e-07
2	0	0	0	0	33.513	-0.467585	-0.467362	-0.000617556	1	-6.97183e-06	40	25.6022	2.88622e-07
2	0	0	1	0	34.3132	-0.471586	-0.471337	-0.000612427	1	-7.53627e-06	40	26.4024	2.88659e-07
2	0	0	1	0	35.1132	-0.475586	-0.475374	-0.000627545	1	-8.10923e-06	40	27.2024	2.98319e-07
2	0	0	1	0	35.9133	-0.479586	-0.479363	-0.000633441	1	-8.68861e-06	40	28.0025	3.03648e-07
2	0	0	0	0	36.7134	-0.483587	-0.483365	-0.000640663	1	-9.27126e-06	40	28.8026	3.09674e-07
2	0	0	0	0	37.5134	-0.487587	-0.48736	-0.000641914	1	-9.86284e-06	40	29.6026	3.12843e-07
2	0	0	1	0	38.3136	-0.491588	-0.491344	-0.000654646	1	-1.04585e-05	40	30.4028	3.21656e-07
2	0	0	1	0	39.1136	-0.495588	-0.495354	-0.000671002	1	-1.10658e-05	40	31.2028	3.32383e-07
2	0	0	1	0	39.9136	-0.499588	-0.499351	-0.000683989	1	-1.16847e-05	40	32.0028	3.4155e-07
2	1	0	0	0	40.7138	-0.503589	-0.503375	-0.000694316	1	-1.23136e-05	40	32.803	3.49501e-07
2	0	0	0	0	41.5138	-0.507589	-0.507352	-0.00070713	1	-1.29485e-05	40	33.603	3.58764e-07
2	0	0	0	0	42.3138	-0.511589	-0.511358	-0.000712737	1	-1.3588e-05	40	34.403	3.64464e-07
2	0	0	1	0	43.114	-0.51559	-0.515338	-0.000724118	1	-1.42355e-05	40	35.2032	3.73165e-07
2	0	0	1	0	43.914	-0.51959	-0.51934	-0.000732484	1	-1.48922e-05	40	36.0032	3.80408e-07
2	0	0	1	0	44.714	-0.52359	-0.523354	-0.000741881	1	-1.55575e-05	40	36.8032	3.88267e-07
2	0	0	0	0	45.5142	-0.527591	-0.527374	-0.000749082	1	-1.6231e-05	40	37.6034	3.95046e-07
2	0	0	0	0	46.3142	-0.531591	-0.531371	-0.000781489	1	-1.69163e-05	40	38.4034	4.15261e-07
2	0	0	1	0	47.1143	-0.535591	-0.535352	-0.000786039	1	-1.76119e-05	40	39.2035	4.20808e-07
2	0	0	1	0	47.9144	-0.539592	-0.539354	-0.00079153	1	-1.83124e-05	40	40.0036	4.26915e-07
2	0	0	1	0	48.7144	-0.543592	-0.543374	-0.000792859	1	-1.90192e-05	40	40.8036	4.30819e-07
2	0	0	0	0	49.5146	-0.547592	-0.547346	-0.000796759	1	-1.97346e-05	40	41.6038	4.36102e-07
2	0	0	0	0	50.3146	-0.551593	-0.551356	-0.000830679	1	-2.04592e-05	40	42.4038	4.58e-07
2	0	0	0	0	51.1146	-0.555593	-0.555353	-0.000825175	1	-2.11923e-05	40	43.2038	4.58263e-07
2	0	0	1	0	51.9148	-0.559594	-0.559386	-0.000848644	1	-2.19335e-05	40	44.004	4.7472e-07
2	0	0	1	0	52.7148	-0.563594	-0.563358	-0.000849692	1	-2.2681e-05	40	44.804	4.78681e-07
2	0	0	1	0	53.5148	-0.567594	-0.567362	-0.000852641	1	-2.34376e-05	40	45.604	4.83756e-07
2	0	0	0	0	54.315	-0.571595	-0.571358	-0.0008668	1	-2.42003e-05	40	46.4042	4.95253e-07
2	0	0	0	0	55.115	-0.575595	-0.575356	-0.000877207	1	-2.49723e-05	40	47.2042	5.04707e-07
2	0	0	0	0	55.915	-0.579595	-0.579351	-0.000879561	1	-2.5752e-05	40	48.0042	5.09574e-07
2	0	0	1	0	56.7152	-0.583596	-0.58336	-0.000887336	1	-2.65416e-05	40	48.8044	5.17636e-07
2	0	0	1	0	57.5152	-0.587596	-0.587331	-0.000912196	1	-2.73436e-05	40	49.6044	5.35761e-07
2	0	0	1	0	58.3154	-0.591597	-0.591376	-0.000930572	1	-2.81609e-05	40	50.4046	5.50318e-07
2	0	0	0	0	59.1154	-0.595597	-0.595347	-0.00093715	1	-2.89894e-05	40	51.2046	5.57929e-07
2	0	0	0	0	59.9154	-0.599597	-0.599361	-0.000954355	1	-2.98303e-05	40	52.0046	5.72003e-07
2	0	0	1	0	60.7156	-0.603598	-0.603381	-0.000982143	1	-3.06837e-05	40	52.8048	5.92607e-07
2	1	0	1	0	61.5156	-0.607598	-0.607363	-0.000981567	1	-3.15524e-05	40	53.6048	5.96168e-07
2	0	0	1	0	62.3156	-0.611598	-0.611349	-0.00100467	1	-3.24336e-05	40	54.4048	6.14203e-07
2	0	0	0	0	63.1158	-0.615599	-0.615374	-0.00102181	1	-3.33313e-05	40	55.205	6.28796e-07
2	0	0	0	0	63.9158	-0.619599	-0.619382	-0.00103519	1	-3.42407e-05	40	56.005	6.41176e-07
2	1	0	0	0	64.7158	-0.623599	-0.623365	-0.00106047	1	-3.51689e-05	40	56.805	6.61063e-07
2	1	0	1	0	65.516	-0.6276	-0.627379	-0.00108932	1	-3.61143e-05	40	57.6052	6.83414e-07
2	0	0	1	0	66.316	-0.6316	-0.631374	-0.00109927	1	-3.7078e-05	40	58.4052	6.9405e-07
2	0	0	1	0	67.116	-0.6356	-0.635363	-0.00113118	1	-3.80596e-05	40	59.2052	7.18707e-07
2	1	0	0	0	67.9162	-0.639601	-0.639368	-0.00114318	1	-3.90613e-05	40	60.0054	7.3091e-07
2	0	0	0	0	68.7162	-0.643601	-0.643363	-0.00117619	1	-4.00785e-05	40	60.8054	7.56717e-07
2	0	0	1	0	69.5164	-0.647602	-0.647387	-0.0011957	1	-4.11141e-05	40	61.6056	7.74081e-07
2	0	0	1	0	70.3164	-0.651602	-0.651353	-0.00121855	1	-4.21713e-05	40	62.4056	7.93704e-07
2	0	0	1	0	71.1164	-0.655602	-0.655383	-0.00124447	1	-4.32535e-05	40	63.2056	8.15604e-07
2	0	0	0	0	71.9166	-0.659603	-0.659371	-0.00127774	1	-4.43548e-05	40	64.0058	8.42507e-07
2	0	0	0	0	72.7166	-0.663603	-0.663366	-0.00129275	1	-4.54812e-05	40	64.8058	8.57568e-07
2	0	0	0	0	73.5166	-0.667603	-0.667385	-0.00133168	1	-4.66323e-05	40	65.6058	8.88741e-07
2	0	0	1	0	74.3168	-0.671604	-0.67139	-0.00136993	1	-4.78115e-05	40	66.406	9.19754e-07
2	0	0	1	0	75.1168	-0.675604	-0.675366	-0.00139907	1	-4.90175e-05	40	67.206	9.44882e-07
2	0	0	1	0	75.9168	-0.679604	-0.679356	-0.00144076	1	-5.02539e-05	40	68.006	9.78787e-07
2	0	0	0	0	76.717	-0.683605	-0.683364	-0.00147083	1	-5.152e-05	40	68.8062	1.00511e-06
2	0	0	0	0	77.517	-0.687605	-0.687383	-0.00151084	1	-5.2818e-05	40	69.6062	1.03853e-06
2	0	0	1	0	78.317	-0.691605	-0.691376	-0.001557	1	-5.41496e-05	40	70.4062	1.07647e-06
2	0	0	1	0	79.1172	-0.695606	-0.695393	-0.00160728	1	-5.55154e-05	40	71.2064	1.11769e-06
2	0	0	1	0	79.9172	-0.699606	-0.699374	-0.00164647	1	-5.69158e-05	40	72.0064	1.1515e-06
2	0	0	0	0	80.7174	-0.703606	-0.703363	-0.00169628	1	-5.83525e-05	40	72.8066	1.1931e-06
2	0	0	0	0	81.5174	-0.707607	-0.707381	-0.00173042	1	-5.98251e-05	40	73.6066	1.22406e-06
2	0	0	0	0	82.3174	-0.711607	-0.711367	-0.00178764	1	-6.1336e-05	40	74.4066	1.27167e-06
2	0	0	1	0	83.1176	-0.715608	-0.715356	-0.00182219	1	-6.28844e-05	40	75.2068	1.30352e-06
2	0	0	1	0	83.9176	-0.719608	-0.719361	-0.00186853	1	-6.44649e-05	40	76.0068	1.34415e-06
2	0	0	1	0	84.7176	-0.723608	-0.723356	-0.00191623	1	-6.60828e-05	40	76.8068	1.38611e-06
2	0	0	0	0	85.5178	-0.727609	-0.727368	-0.00196699	1	-6.77372e-05	40	77.607	1.43073e-06
2	0	0	0	0	86.3178	-0.731609	-0.731371	-0.00201367	1	-6.94277e-05	40	78.407	1.47274e-06
2	0	0	0	0	87.1178	-0.735609	-0.735373	-0.00205326	1	-7.11525e-05	40	79.207	1.50992e-06
2	0	0	1	0	87.918	-0.73961	-0.739382	-0.00209608	1	-7.29111e-05	40	80.0072	1.5498e-06
2	0	0	1	0	88.718	-0.74361	-0.743362	-0.0021395	1	-7.47019e-05	40	80.8072	1.59042e-06
2	0	0	1	0	89.5181	-0.747611	-0.747361	-0.0021739	1	-7.6524e-05	40	81.6073	1.62469e-06
2	0	0	0	0	90.3182	-0.751611	-0.751359	-0.00221704	1	-7.83797e-05	40	82.4074	1.66579e-06
2	0	0	0	0	91.1182	-0.755611	-0.755341	-0.00223963	1	-8.02615e-05	40	83.2074	1.69168e-06
2	0	0	1	0	91.9184	-0.759611	-0.75937	-0.00228321	1	-8.21733e-05	40	84.0076	1.7338e-06
2	0	0	1	0	92.7184	-0.763612	-0.763344	-0.0023091	1	-8.41087e-05	40	84.8076	1.76264e-06
2	0	0	1	0	93.5184	-0.767612	-0.767377	-0.00233164	1	-8.60689e-05	40	85.6076	1.78925e-06
2	0	0	0	0	94.3186	-0.771613	-0.771376	-0.00237246	1	-8.80579e-05	40	86.4078	1.83006e-06
2	0	0	0	0	95.1186	-0.775613	-0.775353	-0.00239272	1	-9.0069e-05	40	87.2078	1.8552e-06
2	0	0	0	0	95.9186	-0.779613	-0.779381	-0.00243226	1	-9.21026e-05	40	88.0078	1.89565e-06
2	0	0	1	0	96.7188	-0.783614	-0.783357	-0.00244588	1	-9.4159e-05	40	88.808	1.91599e-06
2	0	0	1	0	97.5188	-0.787614	-0.787372	-0.00247524	1	-9.62366e-05	40	89.608	1.94894e-06
2	0	0	1	0	98.3188	-0.791614	-0.791356	-0.00251346	1	-9.83323e-05	40	90.408	1.98904e-06
2	0	0	0	0	99.119	-0.795615	-0.795366	-0.00253721	1	-0.000100454	40	91.2082	2.01802e-06
2	0	0	0	0	99.919	-0.799615	-0.799369	-0.00257665	1	-0.000102601	40	92.0082	2.05969e-06
2	0	0	1	0	100.719	-0.803615	-0.803365	-0.0025861	1	-0.000104765	40	92.8083	2.07759e-06
2	0	0	1	0	101.519	-0.807616	-0.80738	-0.00261934	1	-0.000106951	40	93.6084	2.11481e-06
2	0	0	1	0	102.319	-0.811616	-0.811391	-0.00264896	1	-0.000109157	40	94.4084	2.14934e-06
2	0	0	0	0	103.119	-0.815617	-0.815379	-0.00266595	1	-0.000111386	40	95.2086	2.17376e-06
2	0	0	0	0	103.919	-0.819617	-0.819362	-0.00268716	1	-0.000113637	40	96.0086	2.20176e-06
2	0	0	0	0	104.719	-0.823617	-0.823395	-0.00272142	1	-0.000115912	40	96.8086	2.24081e-06
2	0	0	1	0	105.52	-0.827618	-0.82737	-0.00274312	1	-0.000118206	40	97.6088	2.26957e-06
2	0	0	1	0	106.32	-0.831618	-0.831368	-0.00278358	1	-0.00012053	40	98.4088	2.31418e-06
2	0	0	1	0	107.12	-0.835618	-0.835377	-0.0028205	1	-0.000122882	40	99.2088	2.35618e-06
2	0	0	0	0	107.92	-0.839619	-0.839367	-0.00286385	1	-0.000125267	40	100.009	2.40382e-06
2	0	0	0	0	108.72	-0.843619	-0.843388	-0.00291398	1	-0.000127687	40	100.809	2.45762e-06
2	0	0	1	0	109.52	-0.84762	-0.847376	-0.00296688	1	-0.000130143	40	101.609	2.51406e-06
2	0	0	1	0	110.32	-0.85162	-0.851378	-0.00301331	1	-0.000132643	40	102.409	2.56546e-06
2	0	0	1	0	111.12	-0.85562	-0.855396	-0.00306608	1	-0.000135185	40	103.209	2.62272e-06
2	0	0	0	0	111.92	-0.859621	-0.85939	-0.00314123	1	-0.000137782	40	104.009	2.69955e-06
2	0	0	0	0	112.72	-0.863621	-0.863375	-0.00321191	1	-0.000140431	40	104.809	2.77308e-06
2	0	0	0	0	113.52	-0.867621	-0.867398	-0.00328749	1	-0.000143137	40	105.609	2.85156e-06
2	0	0	1	0	114.32	-0.871622	-0.871365	-0.00336566	1	-0.000145911	40	106.41	2.93272e-06
2	0	0	1	0	115.12	-0.875622	-0.875381	-0.00346772	1	-0.00014876	40	107.21	3.03557e-06
2	0	0	1	0	115.92	-0.879622	-0.879387	-0.00359212	1	-0.000151692	40	108.01	3.15886e-06
2	0	0	0	0	116.721	-0.883623	-0.883379	-0.00371587	1	-0.000154727	40	108.81	3.28252e-06
2	0	0	0	0	117.521	-0.887623	-0.887389	-0.00385819	1	-0.000157868	40	109.61	3.42372e-06
2	0	0	0	0	118.321	-0.891623	-0.891392	-0.00401675	1	-0.000161131	40	110.41	3.5805e-06
2	0	0	1	0	119.121	-0.895624	-0.895394	-0.00420759	1	-0.000164536	40	111.21	3.76745e-06
2	0	0	1	0	119.921	-0.899624	-0.899383	-0.00443321	1	-0.000168105	40	112.01	3.98715e-06
2	0	0	1	0	120.721	-0.903624	-0.903395	-0.00468024	1	-0.000171863	40	112.81	4.22811e-06
2	0	0	0	0	121.521	-0.907625	-0.907374	-0.00494334	1	-0.000175828	40	113.61	4.48546e-06
2	0	0	0	0	122.321	-0.911625	-0.911402	-0.00527551	1	-0.000180034	40	114.41	4.80812e-06
2	0	0	1	0	123.121	-0.915626	-0.915395	-0.00564971	1	-0.000184525	40	115.21	5.17172e-06
2	0	0	1	0	123.921	-0.919626	-0.919382	-0.00609318	1	-0.000189338	40	116.01	5.60196e-06
2	0	0	1	0	124.721	-0.923626	-0.923378	-0.00658799	1	-0.000194527	40	116.81	6.0832e-06
2	0	0	0	0	125.521	-0.927626	-0.927368	-0.00714794	1	-0.000200134	40	117.611	6.62877e-06
2	0	0	0	0	126.321	-0.931627	-0.9314	-0.00777695	1	-0.000206216	40	118.411	7.24345e-06
2	0	0	0	0	127.121	-0.935627	-0.935378	-0.00849654	1	-0.000212835	40	119.211	7.94747e-06
2	0	0	1	0	127.922	-0.939628	-0.939381	-0.00926068	1	-0.000220052	40	120.011	8.69931e-06
2	0	0	1	0	128.722	-0.943628	-0.943375	-0.010099	1	-0.000227918	40	120.811	9.52716e-06
2	0	0	1	0	129.522	-0.947628	-0.947373	-0.0110181	1	-0.000236486	40	121.611	1.04382e-05
2	0	0	0	0	130.322	-0.951629	-0.951375	-0.012027	1	-0.000245828	40	122.411	1.14422e-05
2	0	0	0	0	131.122	-0.955629	-0.95538	-0.013053	1	-0.000255974	40	123.211	1.24706e-05
2	0	0	1	0	131.922	-0.959629	-0.959402	-0.0141365	1	-0.00026697	40	124.011	1.35625e-05
2	0	0	1	0	132.722	-0.96363	-0.963378	-0.0152349	1	-0.000278841	40	124.811	1.46769e-05
2	0	0	1	0	133.522	-0.96763	-0.967397	-0.0163475	1	-0.000291597	40	125.611	1.58145e-05
2	0	0	0	0	134.322	-0.971631	-0.971374	-0.0174203	1	-0.000305246	40	126.411	1.69217e-05
2	0	0	0	0	135.122	-0.975631	-0.975388	-0.0184886	1	-0.000319742	40	127.211	1.80336e-05
2	0	0	0	0	135.922	-0.979631	-0.979411	-0.0194415	1	-0.000335067	40	128.011	1.90412e-05
2	0	0	1	0	136.722	-0.983632	-0.983401	-0.0203075	1	-0.000351116	40	128.812	1.99704e-05
2	0	0	1	0	137.522	-0.987632	-0.987394	-0.0210446	1	-0.000367803	40	129.612	2.07793e-05
2	0	0	1	0	138.322	-0.991632	-0.991398	-0.0216517	1	-0.000385019	40	130.412	2.14654e-05
2	0	0	0	0	139.123	-0.995633	-0.995396	-0.022143	1	-0.000402678	40	131.212	2.2041e-05
2	0	0	0	0	139.923	-0.999633	-0.999385	-0.0224798	1	-0.000420658	40	132.012	2.2466e-05
2	0	0	1	0	140.723	-1.00363	-1.00336	-0.0227554	1	-0.000438889	40	132.812	2.28319e-05
2	0	0	1	0	141.523	-1.00763	-1.00737	-0.0230444	1	-0.00045735	40	133.612	2.32144e-05
2	0	0	1	0	142.323	-1.01163	-1.01139	-0.0232932	1	-0.000476012	40	134.412	2.35585e-05
2	0	0	1	0	143.123	-1.01563	-1.01538	-0.0235635	1	-0.000494886	40	135.212	2.39258e-05
2	0	0	0	0	143.923	-1.01964	-1.01936	-0.0238127	1	-0.000513993	40	136.012	2.42736e-05
2	0	0	0	0	144.723	-1.02364	-1.0234	-0.0241232	1	-0.000533312	40	136.812	2.46876e-05
2	0	0	1	0	145.523	-1.02764	-1.02741	-0.0242705	1	-0.000552802	40	137.612	2.49358e-05
2	0	0	1	0	146.323	-1.03164	-1.03138	-0.0244591	1	-0.00057242	40	138.412	2.52265e-05
2	0	0	1	0	147.123	-1.03564	-1.03537	-0.0246467	1	-0.000592197	40	139.212	2.55185e-05
2	0	0	0	0	147.923	-1.03964	-1.03937	-0.0248415	1	-0.000612125	40	140.013	2.58196e-05
2	0	0	0	0	148.723	-1.04364	-1.04341	-0.0250277	1	-0.000632201	40	140.813	2.61143e-05
2	0	0	0	0	149.523	-1.04764	-1.0474	-0.0252527	1	-0.000652443	40	141.613	2.64496e-05
2	0	0	1	0	150.324	-1.05164	-1.05141	-0.0253137	1	-0.000672785	40	142.413	2.66152e-05
2	0	0	1	0	151.124	-1.05564	-1.05538	-0.0254321	1	-0.000693206	40	143.213	2.68404e-05
2	0	0	1	0	151.924	-1.05964	-1.05938	-0.02558	1	-0.00071374	40	144.013	2.7099e-05
2	0	0	0	0	152.724	-1.06364	-1.0634	-0.0257002	1	-0.000734366	40	144.813	2.73295e-05
2	0	0	0	0	153.524	-1.06764	-1.06739	-0.02581	1	-0.000755121	40	145.613	2.75494e-05
2	0	0	1	0	154.324	-1.07164	-1.07138	-0.0258949	1	-0.00077593	40	146.413	2.77432e-05
2	0	0	1	0	155.124	-1.07564	-1.07537	-0.0259919	1	-0.000796812	40	147.213	2.7951e-05
2	0	0	1	0	155.924	-1.07964	-1.07939	-0.026074	1	-0.000817762	40	148.013	2.8144e-05
2	0	0	0	0	156.724	-1.08364	-1.08338	-0.0264075	1	-0.000838881	40	148.813	2.86093e-05
2	0	0	0	0	157.524	-1.08764	-1.0874	-0.0263378	1	-0.000860129	40	149.613	2.86396e-05
2	0	0	0	0	158.324	-1.09164	-1.09138	-0.0263733	1	-0.000881329	40	150.413	2.87833e-05
2	0	0	1	0	159.124	-1.09564	-1.0954	-0.0264714	1	-0.000902582	40	151.214	2.89969e-05
2	0	0	1	0	159.924	-1.09964	-1.09937	-0.0266464	1	-0.000923956	40	152.014	2.92943e-05
2	0	0	1	0	160.724	-1.10364	-1.10338	-0.0268048	1	-0.000945499	40	152.814	2.95758e-05
2	0	0	0	0	161.525	-1.10764	-1.10739	-0.0267932	1	-0.000967062	40	153.614	2.96707e-05
2	0	0	0	0	162.325	-1.11164	-1.11139	-0.0268381	1	-0.000988633	40	154.414	2.98276e-05
2	0	0	1	0	163.125	-1.11564	-1.1154	-0.026992	1	-0.00101027	40	155.214	3.01071e-05
2	0	0	1	0	163.925	-1.11964	-1.1194	-0.0274107	1	-0.00103213	40	156.014	3.06836e-05
2	0	0	1	0	164.725	-1.12364	-1.12338	-0.0280004	1	-0.00105442	40	156.814	3.14549e-05
2	0	0	1	0	165.525	-1.12765	-1.12739	-0.0293356	1	-0.00107735	40	157.614	3.30725e-05
2	0	0	0	0	166.325	-1.13165	-1.13142	-0.0348991	1	-0.00110253	40	158.414	3.94855e-05
2	0	0	0	0	167.125	-1.13565	-1.1354	-0.0602375	1	-0.00113924	40	159.214	6.83937e-05
2	0	0	1	0	167.925	-1.13965	-1.13939	-0.0960631	1	-0.00120277	40	160.014	0.000109454
2	0	0	1	0	168.725	-1.14365	-1.14338	-0.101914	1	-0.00128312	40	160.814	0.000116527
2	0	0	1	0	169.525	-1.14765	-1.14738	-0.0977137	1	-0.00136344	40	161.614	0.000112115
2	0	0	0	0	170.325	-1.15165	-1.1514	-0.0931534	1	-0.00143974	40	162.415	0.000107256
2	0	0	0	0	171.125	-1.15565	-1.15539	-0.0890427	1	-0.00151279	40	163.215	0.000102879
2	0	0	0	0	171.925	-1.15965	-1.15939	-0.084684	1	-0.00158215	40	164.015	9.8182e-05
2	0	0	1	0	172.726	-1.16365	-1.16339	-0.081619	1	-0.00164862	40	164.815	9.49547e-05
2	0	0	1	0	173.526	-1.16765	-1.1674	-0.0782959	1	-0.00171251	40	165.615	9.14027e-05
2	0	0	1	0	174.326	-1.17165	-1.1714	-0.0756435	1	-0.00177411	40	166.415	8.8609e-05
2	0	0	0	0	175.126	-1.17565	-1.17539	-0.073524	1	-0.00183402	40	167.215	8.64194e-05
2	0	0	0	0	175.926	-1.17965	-1.17939	-0.0721999	1	-0.0018923	40	168.015	8.51521e-05
2	0	0	1	0	176.726	-1.18365	-1.18339	-0.0703937	1	-0.00194942	40	168.815	8.33034e-05
2	0	0	1	0	177.526	-1.18765	-1.1874	-0.0688927	1	-0.00200526	40	169.615	8.18031e-05
2	0	0	1	0	178.326	-1.19165	-1.19139	-0.0675025	1	-0.00205996	40	170.415	8.04221e-05
2	0	0	0	0	179.126	-1.19565	-1.19541	-0.0673001	1	-0.00211412	40	171.215	8.04512e-05
2	0	0	0	0	179.926	-1.19965	-1.19942	-0.0671185	1	-0.00216804	40	172.015	8.05033e-05
2	0	0	0	0	180.726	-1.20365	-1.2034	-0.0677647	1	-0.00222204	40	172.815	8.15483e-05
2	0	0	1	0	181.526	-1.20765	-1.20739	-0.069238	1	-0.00227698	40	173.616	8.35974e-05
2	0	0	1	0	182.326	-1.21165	-1.21138	-0.070961	1	-0.00233319	40	174.416	8.59609e-05
2	0	0	1	0	183.126	-1.21565	-1.2154	-0.0733266	1	-0.00239122	40	175.216	8.91211e-05
2	0	0	0	0	183.927	-1.21965	-1.21941	-0.0769141	1	-0.00245157	40	176.016	9.37896e-05
2	0	0	0	0	184.727	-1.22365	-1.22342	-0.0823899	1	-0.00251508	40	176.816	0.000100798
2	0	0	1	0	185.527	-1.22765	-1.22739	-0.0870409	1	-0.00258332	40	177.616	0.000106833
2	0	0	1	0	186.327	-1.23165	-1.2314	-0.0927468	1	-0.00265547	40	178.416	0.000114208
2	0	0	1	0	187.127	-1.23565	-1.23538	-0.100057	1	-0.00273269	40	179.216	0.000123609
2	0	0	0	0	187.927	-1.23965	-1.2394	-0.108528	1	-0.00281646	40	180.016	0.00013451
2	0	0	0	0	188.727	-1.24365	-1.24338	-0.117587	1	-0.00290719	40	180.816	0.000146206
2	0	0	0	0	189.527	-1.24766	-1.24741	-0.129511	1	-0.00300623	40	181.616	0.000161554
2	0	0	1	0	190.327	-1.25166	-1.25139	-0.141532	1	-0.00311472	40	182.416	0.000177112
2	0	0	1	0	191.127	-1.25566	-1.25537	-0.155138	1	-0.00323355	40	183.216	0.000194756
2	0	0	1	0	191.927	-1.25966	-1.2594	-0.170496	1	-0.00336424	40	184.016	0.000214722
2	0	0	0	0	192.727	-1.26366	-1.2634	-0.189736	1	-0.00350868	40	184.817	0.000239712
2	0	0	0	0	193.527	-1.26766	-1.2674	-0.210296	1	-0.0036689	40	185.617	0.00026653
2	0	0	1	0	194.327	-1.27166	-1.27141	-0.232454	1	-0.00384608	40	186.417	0.000295545
2	0	0	1	0	195.128	-1.27566	-1.27541	-0.258325	1	-0.00404276	40	187.217	0.00032947
2	0	0	1	0	195.928	-1.27966	-1.27938	-0.289101	1	-0.00426228	40	188.017	0.000369872
2	0	0	1	0	196.728	-1.28366	-1.28342	-0.323554	1	-0.00450644	40	188.817	0.000415258
2	0	0	0	0	197.528	-1.28766	-1.28741	-0.36253	1	-0.00478039	40	189.617	0.000466724
2	0	0	0	0	198.328	-1.29166	-1.29141	-0.407107	1	-0.00508816	40	190.417	0.000525744
2	0	0	1	0	199.128	-1.29566	-1.29541	-0.463003	1	-0.00543609	40	191.217	0.000599781
2	0	0	1	0	199.928	-1.29966	-1.29941	-0.527923	1	-0.00583191	40	192.017	0.000685989
2	0	0	1	0	200.728	-1.30366	-1.30343	-0.610152	1	-0.00628683	40	192.817	0.000795294
2	0	0	0	0	201.528	-1.30766	-1.30744	-0.717959	1	-0.00681708	40	193.617	0.000938687
2	0	0	0	0	202.328	-1.31166	-1.31144	-0.864449	1	-0.00745027	40	194.417	0.00113367
2	0	0	0	0	203.128	-1.31566	-1.31543	-1.0638	1	-0.00822032	40	195.217	0.00139936
2	0	0	1	0	203.928	-1.31966	-1.3195	-1.32433	1	-0.00917293	40	196.018	0.00174745
2	0	0	1	0	204.728	-1.32366	-1.32352	-1.64825	1	-0.0103627	40	196.818	0.00218149
2	0	0	1	0	205.528	-1.32766	-1.32757	-1.99666	1	-0.0118196	40	197.618	0.00265069
2	0	0	0	0	206.329	-1.33166	-1.33157	-2.35252	1	-0.0135594	40	198.418	0.00313253
2	0	1	1	1	211.3	-1.32691	-1.32696	-2.50688	2	-0.0259777	40	203.389	0.00332654
2	0	0	1	1	212.07	-1.32306	-1.32311	-2.35283	2	-0.0278533	40	204.159	0.00311305
2	0	0	1	1	212.87	-1.31906	-1.31905	-2.18479	2	-0.0296669	40	204.959	0.00288183
2	0	0	0	1	213.67	-1.31506	-1.31494	-2.03723	2	-0.0313532	40	205.759	0.00267884
2	0	0	0	1	214.47	-1.31106	-1.31096	-1.89955	2	-0.0329259	40	206.559	0.00249024
2	0	0	1	1	215.27	-1.30706	-1.30694	-1.77826	2	-0.0343932	40	207.359	0.00232409
2	0	0	1	1	216.07	-1.30306	-1.30294	-1.67391	2	-0.0357723	40	208.159	0.00218101
2	0	0	1	1	216.87	-1.29906	-1.29893	-1.56916	2	-0.0370663	40	208.959	0.00203822
2	0	0	1	1	217.67	-1.29506	-1.29494	-1.47034	2	-0.03828	40	209.759	0.001904
2	0	0	0	1	218.47	-1.29106	-1.29093	-1.38722	2	-0.0394211	40	210.559	0.0017908
2	0	0	0	1	219.27	-1.28706	-1.28695	-1.31231	2	-0.040499	40	211.359	0.00168889
2	0	0	1	1	220.07	-1.28306	-1.28292	-1.24423	2	-0.0415189	40	212.16	0.00159625
2	0	0	1	1	220.87	-1.27906	-1.27889	-1.18397	2	-0.0424889	40	212.96	0.00151416
2	0	0	1	1	221.67	-1.27506	-1.27488	-1.12741	2	-0.0434122	40	213.76	0.00143732
2	0	0	0	1	222.471	-1.27106	-1.27089	-1.07762	2	-0.0442923	40	214.56	0.00136954
2	0	0	0	1	223.271	-1.26706	-1.26689	-1.03134	2	-0.0451346	40	215.36	0.00130659
2	0	0	0	1	224.071	-1.26306	-1.26289	-0.989258	2	-0.0459415	40	216.16	0.00124932
2	0	0	1	1	224.871	-1.25906	-1.25887	-0.950331	2	-0.0467161	40	216.96	0.00119635
2	0	0	1	1	225.671	-1.25506	-1.25489	-0.916867	2	-0.0474616	40	217.76	0.00115056
2	0	0	1	1	226.471	-1.25106	-1.25089	-0.886733	2	-0.0481837	40	218.56	0.0011092
2	0	0	0	1	227.271	-1.24706	-1.24687	-0.857632	2	-0.0488804	40	219.36	0.00106936
2	0	0	0	1	228.071	-1.24305	-1.24287	-0.831191	2	-0.0495554	40	220.16	0.00103306
2	0	0	1	1	228.871	-1.23905	-1.23886	-0.806046	2	-0.0502098	40	220.96	0.000998579
2	0	0	1	1	229.671	-1.23505	-1.23483	-0.783726	2	-0.0508447	40	221.76	0.000967769
2	0	0	1	1	230.471	-1.23105	-1.23087	-0.759451	2	-0.0514613	40	222.56	0.000934786
2	0	0	0	1	231.271	-1.22705	-1.22687	-0.73723	2	-0.0520596	40	223.361	0.000904483
2	0	0	0	1	232.071	-1.22305	-1.22285	-0.71308	2	-0.0526397	40	224.161	0.000871992
2	0	0	0	1	232.871	-1.21905	-1.21888	-0.690958	2	-0.053201	40	224.961	0.000842192
2	0	0	1	1	233.672	-1.21505	-1.21485	-0.668992	2	-0.0537446	40	225.761	0.000812723
2	0	0	1	1	234.472	-1.21105	-1.21088	-0.646301	2	-0.0542701	40	226.561	0.000782592
2	0	0	1	1	235.272	-1.20705	-1.20686	-0.624592	2	-0.0547777	40	227.361	0.000753793
2	0	0	0	1	236.072	-1.20305	-1.20284	-0.600951	2	-0.0552675	40	228.161	0.000722845
2	0	0	0	1	236.872	-1.19905	-1.19885	-0.577325	2	-0.0557381	40	228.961	0.000692125
2	0	0	1	1	237.672	-1.19505	-1.19483	-0.552903	2	-0.0561896	40	229.761	0.000660627
2	0	0	1	1	238.472	-1.19105	-1.19081	-0.527467	2	-0.0566213	40	230.561	0.000628114
2	0	0	1	1	239.272	-1.18705	-1.18681	-0.501468	2	-0.0570325	40	231.361	0.000595147
2	0	0	1	1	240.072	-1.18305	-1.18285	-0.475722	2	-0.0574229	40	232.161	0.000562707
2	0	0	0	1	240.872	-1.17905	-1.17884	-0.450015	2	-0.057793	40	232.961	0.000530495
2	0	0	0	1	241.672	-1.17505	-1.17482	-0.422642	2	-0.0581412	40	233.761	0.000496528
2	0	0	1	1	242.472	-1.17105	-1.17085	-0.395416	2	-0.058468	40	234.562	0.000462973
2	0	0	1	1	243.272	-1.16705	-1.16684	-0.367078	2	-0.0587726	40	235.362	0.000428323
2	0	0	1	1	244.072	-1.16305	-1.16284	-0.340741	2	-0.0590552	40	236.162	0.000396225
2	0	0	0	1	244.873	-1.15905	-1.15883	-0.315498	2	-0.0593172	40	236.962	0.000365607
2	0	0	0	1	245.673	-1.15505	-1.15481	-0.289806	2	-0.0595589	40	237.762	0.000334671
2	0	0	0	1	246.473	-1.15105	-1.15083	-0.265399	2	-0.0597804	40	238.562	0.000305429
2	0	0	1	1	247.273	-1.14705	-1.14683	-0.242784	2	-0.0599831	40	239.362	0.000278431
2	0	0	1	1	248.073	-1.14305	-1.14282	-0.220994	2	-0.0601679	40	240.162	0.000252557
2	0	0	1	1	248.873	-1.13905	-1.1388	-0.201099	2	-0.0603364	40	240.962	0.000229012
2	0	0	0	1	249.673	-1.13505	-1.13481	-0.182691	2	-0.0604894	40	241.762	0.000207318
2	0	0	0	1	250.473	-1.13104	-1.13081	-0.165122	2	-0.0606281	40	242.562	0.000186721
2	0	0	1	1	251.273	-1.12704	-1.12684	-0.149193	2	-0.0607533	40	243.362	0.000168116
2	0	0	1	1	252.073	-1.12304	-1.12283	-0.134778	2	-0.0608664	40	244.162	0.000151332
2	0	0	1	1	252.873	-1.11904	-1.11881	-0.121382	2	-0.0609685	40	244.962	0.000135804
2	0	0	0	1	253.673	-1.11504	-1.1148	-0.109384	2	-0.0610604	40	245.763	0.000121942
2	0	0	0	1	254.473	-1.11104	-1.1108	-0.0975922	2	-0.0611429	40	246.563	0.000108405
2	0	0	0	1	255.273	-1.10704	-1.10681	-0.0870353	2	-0.0612163	40	247.363	9.63312e-05
2	0	0	1	1	256.074	-1.10304	-1.10279	-0.0773392	2	-0.0612816	40	248.163	8.52893e-05
2	0	0	1	1	256.874	-1.09904	-1.09881	-0.0684211	2	-0.0613395	40	248.963	7.51816e-05
2	0	0	1	1	257.674	-1.09504	-1.09482	-0.0602954	2	-0.0613906	40	249.763	6.60126e-05
2	0	0	0	1	258.474	-1.09104	-1.09083	-0.0529673	2	-0.0614355	40	250.563	5.77783e-05
2	0	0	0	1	259.274	-1.08704	-1.08681	-0.0461168	2	-0.0614748	40	251.363	5.01204e-05
2	0	0	1	1	260.074	-1.08304	-1.08282	-0.0398421	2	-0.0615088	40	252.163	4.31419e-05
2	0	0	1	1	260.874	-1.07904	-1.0788	-0.0341707	2	-0.061538	40	252.963	3.68634e-05
2	0	0	1	1	261.674	-1.07504	-1.07481	-0.0289855	2	-0.0615629	40	253.763	3.1154e-05
2	0	0	0	1	262.474	-1.07104	-1.07079	-0.0242272	2	-0.0615838	40	254.563	2.59423e-05
2	0	0	0	1	263.274	-1.06704	-1.0668	-0.0199261	2	-0.061601	40	255.363	2.12572e-05
2	0	0	0	1	264.074	-1.06304	-1.06279	-0.0161593	2	-0.061615	40	256.163	1.71739e-05
2	0	0	1	1	264.874	-1.05904	-1.05878	-0.0125356	2	-0.0616261	40	256.964	1.32725e-05
2	0	0	1	1	265.674	-1.05504	-1.0548	-0.00863185	2	-0.0616341	40	257.764	9.10491e-06
2	0	0	1	1	266.474	-1.05104	-1.05081	-0.00445652	2	-0.0616389	40	258.564	4.68294e-06
2	0	0	0	1	267.275	-1.04704	-1.04682	-0.000213161	2	-0.0616403	40	259.364	2.23141e-07
2	1	0	0	1	268.075	-1.04304	-1.04282	0.0039745	2	-0.0616383	40	0.6	-4.14468e-06
2	1	0	1	1	268.875	-1.03904	-1.03882	0.00768377	2	-0.0616331	40	1.4001	-7.98202e-06
2	1	0	1	1	269.675	-1.03504	-1.03481	0.011142	2	-0.0616251	40	2.2002	-1.15299e-05
2	1	0	1	1	270.475	-1.03104	-1.0308	0.0145153	2	-0.0616144	40	3.0002	-1.49623e-05
2	1	0	1	1	271.275	-1.02704	-1.0268	0.0178633	2	-0.0616011	40	3.8004	-1.83421e-05
2	1	0	0	1	272.075	-1.02304	-1.02279	0.0211815	2	-0.0615851	40	4.6004	-2.16641e-05
2	1	0	0	1	272.875	-1.01903	-1.0188	0.024294	2	-0.0615665	40	5.4004	-2.47507e-05
2	1	0	1	1	273.675	-1.01503	-1.01479	0.0275094	2	-0.0615455	40	6.2006	-2.79163e-05
2	1	0	1	1	274.475	-1.01103	-1.01079	0.0304245	2	-0.061522	40	7.0006	-3.07526e-05
2	1	0	1	1	275.275	-1.00703	-1.0068	0.0331877	2	-0.0614963	40	7.8006	-3.34132e-05
2	1	0	0	1	276.075	-1.00303	-1.0028	0.0357672	2	-0.0614684	40	8.6008	-3.58673e-05
2	1	0	0	1	276.875	-0.999033	-0.998795	0.0381907	2	-0.0614385	40	9.4008	-3.81447e-05
2	1	0	0	1	277.675	-0.995033	-0.994786	0.0402216	2	-0.061407	40	10.2008	-4.00119e-05
2	1	0	1	1	278.476	-0.991032	-0.99079	0.0420608	2	-0.0613738	40	11.001	-4.16734e-05
2	1	0	1	1	279.276	-0.987032	-0.986792	0.0437642	2	-0.0613392	40	11.801	-4.31862e-05
2	1	0	1	1	280.076	-0.983032	-0.982782	0.0453539	2	-0.0613034	40	12.601	-4.4573e-05
2	1	0	0	1	280.876	-0.979031	-0.978801	0.0466621	2	-0.0612663	40	13.4012	-4.56729e-05
2	1	0	0	1	281.676	-0.975031	-0.974811	0.047933	2	-0.0612283	40	14.2012	-4.67256e-05
2	1	0	1	1	282.476	-0.971031	-0.9708	0.0489998	2	-0.0611894	40	15.0013	-4.7569e-05
2	1	0	1	1	283.276	-0.96703	-0.966821	0.0499302	2	-0.0611496	40	15.8014	-4.82736e-05
2	1	0	1	1	284.076	-0.96303	-0.962801	0.0507335	2	-0.0611092	40	16.6014	-4.88462e-05
2	1	0	0	1	284.876	-0.959029	-0.958808	0.0513766	2	-0.0610682	40	17.4016	-4.92603e-05
2	1	0	0	1	285.676	-0.955029	-0.954805	0.0518027	2	-0.0610267	40	18.2016	-4.94615e-05
2	1	0	0	1	286.476	-0.951029	-0.950793	0.0521763	2	-0.0609849	40	19.0016	-4.96088e-05
2	1	0	1	1	287.276	-0.947028	-0.946784	0.0524497	2	-0.0609429	40	19.8018	-4.96585e-05
2	1	0	1	1	288.076	-0.943028	-0.942782	0.0528044	2	-0.0609007	40	20.6018	-4.9783e-05
2	1	0	1	1	288.876	-0.939028	-0.938803	0.0533999	2	-0.060858	40	21.4018	-5.0132e-05
2	1	0	0	1	289.677	-0.935027	-0.934799	0.0536036	2	-0.0608151	40	22.202	-5.01086e-05
2	1	0	0	1	290.477	-0.931027	-0.930796	0.0540647	2	-0.0607719	40	23.002	-5.03232e-05
2	1	0	1	1	291.277	-0.927027	-0.926784	0.0543134	2	-0.0607284	40	23.802	-5.03368e-05
2	1	0	1	1	292.077	-0.923026	-0.922772	0.0547844	2	-0.0606846	40	24.6022	-5.05535e-05
2	1	0	1	1	292.877	-0.919026	-0.918776	0.0551272	2	-0.0606405	40	25.4022	-5.06496e-05
2	1	0	1	1	293.677	-0.915026	-0.914769	0.0554724	2	-0.0605961	40	26.2023	-5.07445e-05
2	1	0	0	1	294.477	-0.911025	-0.910778	0.0558556	2	-0.0605515	40	27.0024	-5.0872e-05
2	1	0	0	1	295.277	-0.907025	-0.906789	0.0558631	2	-0.0605067	40	27.8024	-5.0656e-05
2	1	0	1	1	296.077	-0.903024	-0.902788	0.0558112	2	-0.0604618	40	28.6026	-5.03857e-05
2	1	0	1	1	296.877	-0.899024	-0.898779	0.055545	2	-0.0604172	40	29.4026	-4.99227e-05
2	1	0	1	1	297.677	-0.895024	-0.894804	0.0552824	2	-0.0603727	40	30.2026	-4.94669e-05
2	1	0	0	1	298.477	-0.891023	-0.890812	0.0544607	2	-0.0603287	40	31.0028	-4.85143e-05
2	1	0	0	1	299.277	-0.887023	-0.886794	0.0536592	2	-0.0602853	40	31.8028	-4.75847e-05
2	1	0	0	1	300.077	-0.883023	-0.882788	0.0527217	2	-0.0602426	40	32.6028	-4.65421e-05
2	1	0	1	1	300.878	-0.879022	-0.87877	0.0516645	2	-0.0602008	40	33.403	-4.54012e-05
2	1	0	1	1	301.678	-0.875022	-0.874785	0.0502989	2	-0.0601599	40	34.203	-4.40007e-05
2	1	0	1	1	302.478	-0.871021	-0.87079	0.0486983	2	-0.0601202	40	35.0031	-4.2406e-05
2	1	0	0	1	303.278	-0.867021	-0.86681	0.0469392	2	-0.0600818	40	35.8032	-4.06873e-05
2	1	0	0	1	304.078	-0.863021	-0.862791	0.044967	2	-0.0600449	40	36.6032	-3.87971e-05
2	1	0	1	1	304.878	-0.859021	-0.858799	0.0426492	2	-0.0600098	40	37.4033	-3.66271e-05
2	1	0	1	1	305.678	-0.85502	-0.854766	0.040302	2	-0.0599765	40	38.2034	-3.44488e-05
2	1	0	1	1	306.478	-0.85102	-0.850781	0.0379668	2	-0.0599451	40	39.0034	-3.23014e-05
2	1	0	0	1	307.278	-0.847019	-0.84677	0.0357749	2	-0.0599155	40	39.8036	-3.02931e-05
2	1	0	0	1	308.078	-0.843019	-0.842765	0.0337808	2	-0.0598876	40	40.6036	-2.84692e-05
2	1	0	0	1	308.878	-0.839019	-0.838769	0.0321592	2	-0.0598611	40	41.4036	-2.69742e-05
2	1	0	1	1	309.678	-0.835018	-0.834767	0.0308511	2	-0.0598359	40	42.2038	-2.57535e-05
2	1	0	1	1	310.478	-0.831018	-0.83076	0.0297821	2	-0.0598115	40	43.0038	-2.47418e-05
2	1	0	1	1	311.278	-0.827018	-0.826774	0.0290074	2	-0.059788	40	43.8038	-2.39826e-05
2	1	0	0	1	312.079	-0.823017	-0.822777	0.0283211	2	-0.059765	40	44.604	-2.33019e-05
2	1	0	0	1	312.879	-0.819017	-0.818749	0.0277435	2	-0.0597424	40	45.404	-2.2715e-05
2	1	0	1	1	313.679	-0.815016	-0.814763	0.0271138	2	-0.0597204	40	46.2042	-2.20913e-05
2	1	0	1	1	314.479	-0.811016	-0.810782	0.0265043	2	-0.0596988	40	47.0042	-2.14892e-05
2	1	0	1	1	315.279	-0.807016	-0.80677	0.0258219	2	-0.0596778	40	47.8042	-2.08323e-05
2	1	0	0	1	316.079	-0.803015	-0.802744	0.0251618	2	-0.0596574	40	48.6044	-2.01985e-05
2	1	0	0	1	316.879	-0.799015	-0.798774	0.0243761	2	-0.0596375	40	49.4044	-1.9471e-05
2	1	0	0	1	317.679	-0.795015	-0.794779	0.023521	2	-0.0596182	40	50.2044	-1.8694e-05
2	1	0	1	1	318.479	-0.791014	-0.790768	0.0226042	2	-0.0595997	40	51.0046	-1.78747e-05
2	1	0	1	1	319.279	-0.787014	-0.786764	0.0218298	2	-0.0595818	40	51.8046	-1.71749e-05
2	1	0	1	1	320.079	-0.783014	-0.782768	0.0208837	2	-0.0595647	40	52.6046	-1.63471e-05
2	1	0	0	1	320.879	-0.779013	-0.778767	0.019959	2	-0.0595483	40	53.4048	-1.55434e-05
2	1	0	0	1	321.679	-0.775013	-0.774768	0.0189669	2	-0.0595326	40	54.2048	-1.4695e-05
2	1	0	1	1	322.479	-0.771012	-0.77076	0.0180064	2	-0.0595178	40	55.0049	-1.38786e-05
2	1	0	1	1	323.28	-0.767012	-0.766763	0.0170007	2	-0.0595037	40	55.805	-1.30355e-05
2	1	0	1	1	324.08	-0.763012	-0.76275	0.0160976	2	-0.0594904	40	56.605	-1.22784e-05
2	1	0	0	1	324.88	-0.759012	-0.758761	0.0152324	2	-0.0594778	40	57.4052	-1.15577e-05
2	1	0	0	1	325.68	-0.755011	-0.754739	0.0143562	2	-0.0594659	40	58.2052	-1.08352e-05
2	1	0	0	1	326.48	-0.751011	-0.750767	0.013565	2	-0.0594547	40	59.0052	-1.01842e-05
2	1	0	1	1	327.28	-0.74701	-0.746763	0.0128044	2	-0.059444	40	59.8054	-9.56187e-06
2	1	0	1	1	328.08	-0.74301	-0.742755	0.0120589	2	-0.059434	40	60.6054	-8.9568e-06
2	1	0	1	1	328.88	-0.73901	-0.738781	0.0113976	2	-0.0594246	40	61.4054	-8.4203e-06
2	1	0	0	1	329.68	-0.735009	-0.734787	0.0107555	2	-0.0594157	40	62.2056	-7.90301e-06
2	1	0	0	1	330.48	-0.731009	-0.730778	0.0101643	2	-0.0594072	40	63.0056	-7.42781e-06
2	1	0	0	1	331.28	-0.727009	-0.726755	0.00959417	2	-0.0593993	40	63.8056	-6.97261e-06
2	1	0	1	1	332.08	-0.723008	-0.722761	0.00907604	2	-0.0593917	40	64.6058	-6.55981e-06
2	1	0	1	1	332.88	-0.719008	-0.718762	0.00855098	2	-0.0593846	40	65.4058	-6.14612e-06
2	1	0	1	1	333.68	-0.715007	-0.71478	0.00806434	2	-0.0593779	40	66.2059	-5.76423e-06
2	1	0	0	1	334.481	-0.711007	-0.710776	0.00758643	2	-0.0593716	40	67.006	-5.39225e-06
2	1	0	0	1	335.281	-0.707007	-0.706754	0.00714396	2	-0.0593656	40	67.806	-5.04902e-06
2	1	0	1	1	336.081	-0.703006	-0.702753	0.00671687	2	-0.05936	40	68.6062	-4.7203e-06
2	1	0	1	1	336.881	-0.699006	-0.698768	0.00637418	2	-0.0593547	40	69.4062	-4.45407e-06
2	1	0	1	1	337.681	-0.695006	-0.69479	0.00601415	2	-0.0593497	40	70.2062	-4.17857e-06
2	1	0	0	1	338.481	-0.691005	-0.690779	0.0056775	2	-0.059345	40	71.0064	-3.9219e-06
2	1	0	0	1	339.281	-0.687005	-0.686755	0.00533948	2	-0.0593405	40	71.8064	-3.66692e-06
2	1	0	0	1	340.081	-0.683005	-0.682763	0.00503924	2	-0.0593363	40	72.6064	-3.44061e-06
2	1	0	1	1	340.881	-0.679004	-0.678769	0.00476356	2	-0.0593323	40	73.4066	-3.23336e-06
2	1	0	1	1	341.681	-0.675004	-0.674739	0.00449652	2	-0.0593285	40	74.2066	-3.03398e-06
2	1	0	1	1	342.481	-0.671004	-0.670761	0.0042836	2	-0.0593249	40	75.0066	-2.87327e-06
2	1	0	0	1	343.281	-0.667003	-0.666766	0.00405119	2	-0.0593215	40	75.8068	-2.7012e-06
2	1	0	0	1	344.081	-0.663003	-0.662752	0.00387457	2	-0.0593183	40	76.6068	-2.56788e-06
2	1	0	1	1	344.881	-0.659002	-0.658754	0.00368834	2	-0.0593152	40	77.4069	-2.42971e-06
2	1	0	1	1	345.682	-0.655002	-0.654766	0.00352924	2	-0.0593122	40	78.207	-2.31083e-06
2	1	0	1	1	346.482	-0.651002	-0.650768	0.00338361	2	-0.0593094	40	79.007	-2.20194e-06
2	1	0	0	1	347.282	-0.647001	-0.646755	0.00322156	2	-0.0593067	40	79.8072	-2.08356e-06
2	1	0	0	1	348.082	-0.643001	-0.64275	0.00307904	2	-0.0593041	40	80.6072	-1.97906e-06
2	1	0	0	1	348.882	-0.639001	-0.638754	0.00295701	2	-0.0593016	40	81.4072	-1.8888e-06
2	1	0	1	1	349.682	-0.635	-0.634755	0.00285283	2	-0.0592992	40	82.2074	-1.81085e-06
2	1	0	1	1	350.482	-0.631	-0.630753	0.00272364	2	-0.0592969	40	83.0074	-1.71795e-06
2	1	0	1	1	351.282	-0.627	-0.626744	0.00262578	2	-0.0592947	40	83.8074	-1.64569e-06
2	1	0	0	1	352.082	-0.622999	-0.622749	0.00253112	2	-0.0592925	40	84.6076	-1.57625e-06
2	1	0	0	1	352.882	-0.618999	-0.618758	0.00243489	2	-0.0592905	40	85.4076	-1.50661e-06
2	1	0	0	1	353.682	-0.614999	-0.614742	0.0023674	2	-0.0592885	40	86.2076	-1.45534e-06
2	1	0	1	1	354.482	-0.610998	-0.610735	0.00227616	2	-0.0592865	40	87.0078	-1.39013e-06
2	1	0	1	1	355.282	-0.606998	-0.606749	0.00220487	2	-0.0592847	40	87.8078	-1.3378e-06
2	1	0	1	1	356.082	-0.602998	-0.602747	0.00213327	2	-0.0592829	40	88.6079	-1.28582e-06
2	1	0	0	1	356.883	-0.598997	-0.598735	0.0020677	2	-0.0592811	40	89.408	-1.238e-06
2	1	0	0	1	357.683	-0.594997	-0.594754	0.00201073	2	-0.0592794	40	90.208	-1.19589e-06
2	1	0	1	1	358.483	-0.590996	-0.59076	0.00194981	2	-0.0592778	40	91.0082	-1.15187e-06
2	1	0	1	1	359.283	-0.586996	-0.58676	0.00190182	2	-0.0592762	40	91.8082	-1.11591e-06
2	1	0	1	1	360.083	-0.582996	-0.582748	0.00186017	2	-0.0592746	40	92.6082	-1.08401e-06
2	1	0	0	1	360.883	-0.578995	-0.578761	0.00180437	2	-0.0592731	40	93.4084	-1.0443e-06
2	1	0	0	1	361.683	-0.574995	-0.574756	0.00174898	2	-0.0592716	40	94.2084	-1.00524e-06
2	1	0	0	1	362.483	-0.570995	-0.570744	0.00171227	2	-0.0592701	40	95.0084	-9.77267e-07
2	1	0	1	1	363.283	-0.566994	-0.566742	0.00167903	2	-0.0592687	40	95.8086	-9.5158e-07
2	1	0	1	1	364.083	-0.562994	-0.562755	0.00165102	2	-0.0592673	40	96.6086	-9.29118e-07
2	1	0	1	1	364.883	-0.558993	-0.558756	0.00161127	2	-0.0592659	40	97.4087	-9.00306e-07
2	1	0	0	1	365.683	-0.554993	-0.554762	0.00158469	2	-0.0592646	40	98.2088	-8.79124e-07
2	1	0	0	1	366.483	-0.550993	-0.550743	0.00155	2	-0.0592632	40	99.0088	-8.5365e-07
2	1	0	1	1	367.283	-0.546993	-0.546747	0.00153222	2	-0.0592619	40	99.8089	-8.3774e-07
2	1	0	1	1	368.084	-0.542992	-0.542736	0.00150211	2	-0.0592607	40	100.609	-8.15248e-07
2	1	0	1	1	368.884	-0.538992	-0.538747	0.00147587	2	-0.0592594	40	101.409	-7.95122e-07
2	1	0	0	1	369.684	-0.534991	-0.534736	0.0014474	2	-0.0592582	40	102.209	-7.73975e-07
2	1	0	0	1	370.484	-0.530991	-0.530755	0.0014091	2	-0.059257	40	103.009	-7.47889e-07
2	1	0	0	1	371.284	-0.526991	-0.526756	0.00138029	2	-0.0592558	40	103.809	-7.27078e-07
2	1	0	1	1	372.084	-0.52299	-0.522729	0.00135977	2	-0.0592546	40	104.609	-7.10793e-07
2	1	0	1	1	372.884	-0.51899	-0.518749	0.00133871	2	-0.0592535	40	105.409	-6.94454e-07
2	1	0	1	1	373.684	-0.51499	-0.514748	0.00132516	2	-0.0592523	40	106.209	-6.82124e-07
2	1	0	0	1	374.484	-0.510989	-0.510731	0.00130966	2	-0.0592512	40	107.01	-6.68883e-07
2	1	0	0	1	375.284	-0.506989	-0.506737	0.00129179	2	-0.0592501	40	107.81	-6.54599e-07
2	1	0	1	1	376.084	-0.502988	-0.502751	0.00126837	2	-0.059249	40	108.61	-6.37672e-07
2	1	0	1	1	376.884	-0.498988	-0.498729	0.00125926	2	-0.0592479	40	109.41	-6.28029e-07
2	1	0	1	1	377.684	-0.494988	-0.494752	0.00124639	2	-0.0592469	40	110.21	-6.16654e-07
2	1	0	1	1	378.485	-0.490987	-0.490756	0.00121525	2	-0.0592458	40	111.01	-5.9639e-07
2	1	0	0	1	379.285	-0.486987	-0.486728	0.00121041	2	-0.0592448	40	111.81	-5.89142e-07
2	1	0	0	1	380.085	-0.482987	-0.482745	0.00119303	2	-0.0592438	40	112.61	-5.75931e-07
2	1	0	1	1	380.885	-0.478986	-0.478742	0.00118146	2	-0.0592427	40	113.41	-5.65614e-07
2	1	0	1	1	381.685	-0.474986	-0.474761	0.00118326	2	-0.0592417	40	114.21	-5.61765e-07
2	1	0	1	1	382.485	-0.470986	-0.470745	0.0011666	2	-0.0592407	40	115.01	-5.4917e-07
2	1	0	0	1	383.285	-0.466985	-0.466746	0.00116418	2	-0.0592397	40	115.81	-5.43374e-07
2	1	0	0	1	384.085	-0.462985	-0.462739	0.00115525	2	-0.0592387	40	116.61	-5.3458e-07
2	1	0	0	1	384.885	-0.458985	-0.458742	0.0011425	2	-0.0592377	40	117.41	-5.24113e-07
2	1	0	1	1	385.685	-0.454984	-0.454759	0.00114043	2	-0.0592368	40	118.211	-5.18623e-07
2	1	0	1	1	386.485	-0.450984	-0.450741	0.00114195	2	-0.0592358	40	119.011	-5.14725e-07
2	1	0	1	1	387.285	-0.446983	-0.446724	0.00111985	2	-0.0592348	40	119.811	-5.00263e-07
2	1	0	0	1	388.085	-0.442983	-0.442729	0.00111045	2	-0.0592339	40	120.611	-4.91629e-07
2	1	0	0	1	388.885	-0.438983	-0.438736	0.00111201	2	-0.0592329	40	121.411	-4.8788e-07
2	1	0	1	1	389.686	-0.434982	-0.434738	0.00110762	2	-0.059232	40	122.211	-4.81525e-07
2	1	0	1	1	390.486	-0.430982	-0.430743	0.00110344	2	-0.059231	40	123.011	-4.753e-07
2	1	0	1	1	391.286	-0.426982	-0.42676	0.00109977	2	-0.0592301	40	123.811	-4.69337e-07
2	1	0	0	1	392.086	-0.422981	-0.422766	0.00109394	2	-0.0592291	40	124.611	-4.62479e-07
2	1	0	0	1	392.886	-0.418981	-0.418748	0.00109721	2	-0.0592282	40	125.411	-4.59453e-07
2	1	0	0	1	393.686	-0.414981	-0.414735	0.00108796	2	-0.0592273	40	126.211	-4.51216e-07
2	1	0	1	1	394.486	-0.41098	-0.410745	0.00108352	2	-0.0592263	40	127.011	-4.45049e-07
2	1	0	1	1	395.286	-0.40698	-0.406736	0.00107968	2	-0.0592254	40	127.811	-4.39144e-07
2	1	0	1	1	396.086	-0.40298	-0.402741	0.00107762	2	-0.0592245	40	128.611	-4.34001e-07
2	1	0	0	1	396.886	-0.398979	-0.398737	0.00108255	2	-0.0592236	40	129.412	-4.31652e-07
2	1	0	0	1	397.686	-0.394979	-0.394733	0.0010805	2	-0.0592226	40	130.212	-4.26509e-07
2	0	0	1	1	398.486	-0.390979	-0.390755	0.00108559	2	-0.0592217	40	131.012	-4.24198e-07
2	1	0	1	1	399.286	-0.386978	-0.386742	0.00108786	2	-0.0592208	40	131.812	-4.20722e-07
2	1	0	1	1	400.086	-0.382978	-0.382756	0.00107871	2	-0.0592198	40	132.612	-4.12882e-07
2	1	0	0	1	400.887	-0.378977	-0.378748	0.00107916	2	-0.0592189	40	133.412	-4.08731e-07
2	1	0	0	1	401.687	-0.374977	-0.374725	0.0010781	2	-0.059218	40	134.212	-4.03993e-07
2	1	0	0	1	402.487	-0.370977	-0.370735	0.00108762	2	-0.0592171	40	135.012	-4.03217e-07
2	1	0	1	1	403.287	-0.366976	-0.366755	0.0010737	2	-0.0592161	40	135.812	-3.93784e-07
2	0	0	1	1	404.087	-0.362976	-0.362723	0.00108606	2	-0.0592152	40	136.612	-3.93941e-07
2	1	0	1	1	404.887	-0.358976	-0.358738	0.00107811	2	-0.0592143	40	137.412	-3.86758e-07
2	1	0	0	1	405.687	-0.354975	-0.354749	0.00108181	2	-0.0592134	40	138.212	-3.83771e-07
2	1	0	0	1	406.487	-0.350975	-0.350767	0.0010941	2	-0.0592124	40	139.012	-3.83773e-07
2	1	0	0	1	407.287	-0.346975	-0.346738	0.0011107	2	-0.0592115	40	139.812	-3.8512e-07
2	1	0	1	1	408.087	-0.342974	-0.342738	0.0011052	2	-0.0592106	40	140.613	-3.78794e-07
2	1	0	1	1	408.887	-0.338974	-0.33874	0.00111948	2	-0.0592096	40	141.413	-3.79214e-07
2	1	0	1	1	409.687	-0.334973	-0.334724	0.00111641	2	-0.0592087	40	142.213	-3.73687e-07
2	1	0	0	1	410.487	-0.330973	-0.330727	0.00112851	2	-0.0592077	40	143.013	-3.73228e-07
2	1	0	0	1	411.287	-0.326973	-0.326745	0.00112532	2	-0.0592068	40	143.813	-3.67692e-07
2	1	0	1	1	411.889	-0.323922	-0.323714	0.00113048	2	-0.0592061	40	144.415	-3.65954e-07