File: Fig 3/Fig 3_RRDE-np-Fe3O4_500mvs_disk.mpt
mode	ox/red	error	control changes	Ns changes	counter inc.	Ns	time/s	control/V	Ewe/V	<I>/mA	dQ/C	(Q-Qo)/C	I Range	Q charge/discharge/mA.h	half cycle	Energy charge/W.h	Energy discharge/W.h	Capacitance charge/µF	Capacitance discharge/µF	step time/s	Q discharge/mA.h	Q charge/mA.h	Capacity/mA.h	Efficiency/%	cycle number	P/W
2	1	1	0	0	0	0	0.1	-0.300024	-0.300253	0.100441	1.00441e-05	1.00441e-05	41	2.79004e-06	0	8.37717e-10	0.000000000000000E+000	0.000000000000000E+000	0.000000000000000E+000	0.1	0.000000000000000E+000	2.79004e-06	2.79004e-06	0.0000000E+000	0.000000000000000E+000	-3.01578e-05
2	1	0	0	0	0	0	0.3	-0.300024	-0.300195	0.0142542	1.39733e-05	1.39733e-05	41	3.88148e-06	0	1.1654e-09	0.000000000000000E+000	243567	0.000000000000000E+000	0.3	0.000000000000000E+000	3.88148e-06	3.88148e-06	0.0000000E+000	0.000000000000000E+000	-4.27904e-06
2	1	0	0	0	0	0	0.5	-0.300024	-0.300249	0.00702053	1.56412e-05	1.56412e-05	41	4.34477e-06	0	1.3045e-09	0.000000000000000E+000	4.06845e+06	0.000000000000000E+000	0.5	0.000000000000000E+000	4.34477e-06	4.34477e-06	0.0000000E+000	0.000000000000000E+000	-2.10791e-06
2	1	0	0	0	0	0	0.7	-0.300024	-0.300283	0.00406573	1.65768e-05	1.65768e-05	41	4.60467e-06	0	1.38253e-09	0.000000000000000E+000	542131	0.000000000000000E+000	0.7	0.000000000000000E+000	4.60467e-06	4.60467e-06	0.0000000E+000	0.000000000000000E+000	-1.22087e-06
2	1	0	0	0	0	0	0.9	-0.300024	-0.300245	0.0024905	1.71443e-05	1.71443e-05	41	4.76231e-06	0	1.42986e-09	0.000000000000000E+000	2.2384e+06	0.000000000000000E+000	0.9	0.000000000000000E+000	4.76231e-06	4.76231e-06	0.0000000E+000	0.000000000000000E+000	-7.47762e-07
2	1	0	0	0	0	0	1.1	-0.300024	-0.30023	0.00148276	1.74864e-05	1.74864e-05	41	4.85734e-06	0	1.45839e-09	0.000000000000000E+000	762009	0.000000000000000E+000	1.1	0.000000000000000E+000	4.85734e-06	4.85734e-06	0.0000000E+000	0.000000000000000E+000	-4.45169e-07
2	1	0	0	0	0	0	1.3	-0.300024	-0.300245	0.000808985	1.76785e-05	1.76785e-05	41	4.91069e-06	0	1.47441e-09	0.000000000000000E+000	2.30814e+06	0.000000000000000E+000	1.3	0.000000000000000E+000	4.91069e-06	4.91069e-06	0.0000000E+000	0.000000000000000E+000	-2.42894e-07
2	1	0	0	0	0	0	1.5	-0.300024	-0.300214	0.000394153	1.77742e-05	1.77742e-05	41	4.93728e-06	0	1.48239e-09	0.000000000000000E+000	464850	0.000000000000000E+000	1.5	0.000000000000000E+000	4.93728e-06	4.93728e-06	0.0000000E+000	0.000000000000000E+000	-1.1833e-07
2	1	0	0	0	0	0	1.7	-0.300024	-0.300237	0.00107641	1.79256e-05	1.79256e-05	41	4.97933e-06	0	1.49502e-09	0.000000000000000E+000	1.17248e+06	0.000000000000000E+000	1.7	0.000000000000000E+000	4.97933e-06	4.97933e-06	0.0000000E+000	0.000000000000000E+000	-3.2318e-07
2	1	0	0	0	0	0	1.9	-0.300024	-0.300234	0.00751843	1.89737e-05	1.89737e-05	41	5.27046e-06	0	1.58242e-09	0.000000000000000E+000	993215	0.000000000000000E+000	1.9	0.000000000000000E+000	5.27046e-06	5.27046e-06	0.0000000E+000	0.000000000000000E+000	-2.25728e-06
2	1	0	0	0	0	0	2.1	-0.300024	-0.300276	0.0336492	2.40045e-05	2.40045e-05	41	6.66791e-06	0	2.00201e-09	0.000000000000000E+000	1.04741e+06	0.000000000000000E+000	2.1	0.000000000000000E+000	6.66791e-06	6.66791e-06	0.0000000E+000	0.000000000000000E+000	-1.0104e-05
2	1	0	0	0	0	0	2.3	-0.300024	-0.300241	0.047567	3.35573e-05	3.35573e-05	41	9.32148e-06	0	2.79868e-09	0.000000000000000E+000	2.92467e+06	0.000000000000000E+000	2.3	0.000000000000000E+000	9.32148e-06	9.32148e-06	0.0000000E+000	0.000000000000000E+000	-1.42816e-05
2	1	0	0	0	0	0	2.5	-0.300024	-0.30023	0.0236281	3.95641e-05	3.95641e-05	41	1.099e-05	0	3.29965e-09	0.000000000000000E+000	1.72409e+06	0.000000000000000E+000	2.5	0.000000000000000E+000	1.099e-05	1.099e-05	0.0000000E+000	0.000000000000000E+000	-7.09386e-06
2	1	0	0	0	0	0	2.7	-0.300024	-0.300214	0.00777646	4.17208e-05	4.17208e-05	41	1.15891e-05	0	3.47951e-09	0.000000000000000E+000	1.09113e+06	0.000000000000000E+000	2.7	0.000000000000000E+000	1.15891e-05	1.15891e-05	0.0000000E+000	0.000000000000000E+000	-2.33461e-06
2	1	0	0	0	0	0	2.9	-0.300024	-0.300214	0.00371237	4.25632e-05	4.25632e-05	41	1.18231e-05	0	3.54976e-09	0.000000000000000E+000	1.11316e+06	0.000000000000000E+000	2.9	0.000000000000000E+000	1.18231e-05	1.18231e-05	0.0000000E+000	0.000000000000000E+000	-1.11451e-06
2	1	0	0	0	0	0	3.1	-0.300024	-0.300214	0.00481564	4.3426e-05	4.3426e-05	41	1.20628e-05	0	3.62172e-09	0.000000000000000E+000	1.13573e+06	0.000000000000000E+000	3.1	0.000000000000000E+000	1.20628e-05	1.20628e-05	0.0000000E+000	0.000000000000000E+000	-1.44572e-06
2	1	0	0	0	0	0	3.3	-0.300024	-0.30023	0.00946527	4.50527e-05	4.50527e-05	41	1.25146e-05	0	3.75739e-09	0.000000000000000E+000	1.96327e+06	0.000000000000000E+000	3.3	0.000000000000000E+000	1.25146e-05	1.25146e-05	0.0000000E+000	0.000000000000000E+000	-2.84176e-06
2	1	0	0	0	0	0	3.5	-0.300024	-0.300222	0.00882366	4.70286e-05	4.70286e-05	41	1.30635e-05	0	3.92217e-09	0.000000000000000E+000	1.53653e+06	0.000000000000000E+000	3.5	0.000000000000000E+000	1.30635e-05	1.30635e-05	0.0000000E+000	0.000000000000000E+000	-2.64906e-06
2	1	0	0	0	0	0	3.7	-0.300024	-0.300276	0.00168685	4.76861e-05	4.76861e-05	41	1.32461e-05	0	3.97699e-09	0.000000000000000E+000	2.08073e+06	0.000000000000000E+000	3.7	0.000000000000000E+000	1.32461e-05	1.32461e-05	0.0000000E+000	0.000000000000000E+000	-5.06521e-07
2	0	0	0	0	0	0	3.9	-0.300024	-0.300218	-0.000827602	4.75955e-05	4.75955e-05	41	-2.51642e-08	1	3.97699e-09	7.555e-12	2.08073e+06	1975.14	0.1	2.51642e-08	0.000000000000000E+000	2.51642e-08	0.0000000E+000	0.000000000000000E+000	2.48461e-07
2	0	0	0	0	0	0	4.1	-0.300024	-0.300222	-0.00129398	4.73525e-05	4.73525e-05	41	-9.26614e-08	1	3.97699e-09	2.78204e-11	2.08073e+06	7938.39	0.3	9.26614e-08	0.000000000000000E+000	9.26614e-08	0.0000000E+000	0.000000000000000E+000	3.88482e-07
2	0	0	0	0	0	0	4.3	-0.300024	-0.300214	-0.00138313	4.70754e-05	4.70754e-05	41	-1.69633e-07	1	3.97699e-09	5.09302e-11	2.08073e+06	12292.2	0.5	1.69633e-07	0.000000000000000E+000	1.69633e-07	0.0000000E+000	0.000000000000000E+000	4.15237e-07
2	0	0	0	0	0	0	4.5	-0.300024	-0.300188	-0.00147798	4.67838e-05	4.67838e-05	41	-2.50631e-07	1	3.97699e-09	7.52466e-11	2.08073e+06	11803.2	0.7	2.50631e-07	0.000000000000000E+000	2.50631e-07	0.0000000E+000	0.000000000000000E+000	4.43673e-07
2	0	0	0	0	0	0	4.7	-0.300024	-0.300291	-0.00158287	4.6472e-05	4.6472e-05	41	-3.37247e-07	1	3.97699e-09	1.01254e-10	2.08073e+06	45365.4	0.9	3.37247e-07	0.000000000000000E+000	3.37247e-07	0.0000000E+000	0.000000000000000E+000	4.75322e-07
2	0	0	0	0	0	0	4.9	-0.300024	-0.300237	-0.00168695	4.61397e-05	4.61397e-05	41	-4.29546e-07	1	3.97699e-09	1.28967e-10	2.08073e+06	57845.6	1.1	4.29546e-07	0.000000000000000E+000	4.29546e-07	0.0000000E+000	0.000000000000000E+000	5.06486e-07
2	0	0	0	0	0	0	5.1	-0.300024	-0.300253	-0.00175018	4.57926e-05	4.57926e-05	41	-5.25972e-07	1	3.97699e-09	1.57917e-10	2.08073e+06	165457	1.3	5.25972e-07	0.000000000000000E+000	5.25972e-07	0.0000000E+000	0.000000000000000E+000	5.25496e-07
2	0	0	0	0	0	0	5.3	-0.300024	-0.300218	-0.0017833	4.54361e-05	4.54361e-05	41	-6.24992e-07	1	3.97699e-09	1.87645e-10	2.08073e+06	49055.6	1.5	6.24992e-07	0.000000000000000E+000	6.24992e-07	0.0000000E+000	0.000000000000000E+000	5.35379e-07
2	0	0	0	0	0	0	5.5	-0.300024	-0.300188	-0.00169687	4.50885e-05	4.50885e-05	41	-7.21554e-07	1	3.97699e-09	2.16633e-10	2.08073e+06	33980.8	1.7	7.21554e-07	0.000000000000000E+000	7.21554e-07	0.0000000E+000	0.000000000000000E+000	5.09379e-07
2	1	0	0	0	0	0	5.7	-0.300024	-0.300226	-0.000451214	4.49064e-05	4.49064e-05	41	-7.72132e-07	1	3.97699e-09	2.31815e-10	2.08073e+06	72753.8	1.9	7.72132e-07	0.000000000000000E+000	7.72132e-07	5.82911	0.000000000000000E+000	1.35466e-07
2	1	0	0	0	0	0	5.9	-0.300024	-0.300161	0.00642077	4.57222e-05	4.57222e-05	41	2.26611e-07	2	6.80224e-11	0.000000000000000E+000	14227.5	0.000000000000000E+000	0.1	0.000000000000000E+000	2.26611e-07	2.26611e-07	0.0000000E+000	1	-1.92726e-06
2	1	0	0	0	0	0	6.1	-0.300024	-0.30018	0.0125589	4.81279e-05	4.81279e-05	41	8.94874e-07	2	2.6862e-10	0.000000000000000E+000	84253.4	0.000000000000000E+000	0.3	0.000000000000000E+000	8.94874e-07	8.94874e-07	0.0000000E+000	1	-3.76993e-06
2	1	0	0	0	0	0	6.3	-0.300024	-0.300207	0.00887613	5.01073e-05	5.01073e-05	41	1.44469e-06	2	4.33678e-10	0.000000000000000E+000	453279	0.000000000000000E+000	0.5	0.000000000000000E+000	1.44469e-06	1.44469e-06	0.0000000E+000	1	-2.66467e-06
2	1	0	0	0	0	0	6.5	-0.300024	-0.300256	0.00310494	5.093e-05	5.093e-05	41	1.67323e-06	2	5.02292e-10	0.000000000000000E+000	157536	0.000000000000000E+000	0.7	0.000000000000000E+000	1.67323e-06	1.67323e-06	0.0000000E+000	1	-9.32279e-07
2	1	0	0	0	0	0	6.7	-0.300024	-0.300207	0.00144322	5.1295e-05	5.1295e-05	41	1.77461e-06	2	5.3273e-10	0.000000000000000E+000	556794	0.000000000000000E+000	0.9	0.000000000000000E+000	1.77461e-06	1.77461e-06	0.0000000E+000	1	-4.33265e-07
2	0	0	0	0	0	0	6.9	-0.300024	-0.300191	-0.00020457	5.13365e-05	5.13365e-05	41	-5.68249e-09	3	5.37896e-10	1.70578e-12	842196	0.000000000000000E+000	0.000000000000000E+000	5.68249e-09	0.000000000000000E+000	5.68249e-09	0.0000000E+000	1	6.141e-08
2	0	0	0	0	0	0	7.1	-0.300024	-0.300218	-0.00101987	5.11494e-05	5.11494e-05	41	-5.7649e-08	3	5.37896e-10	1.73068e-11	842196	7754.75	0.2	5.7649e-08	0.000000000000000E+000	5.7649e-08	0.0000000E+000	1	3.06183e-07
2	1	0	0	0	0	0	7.3	-0.300024	-0.300203	0.000842877	5.11707e-05	5.11707e-05	41	2.34133e-08	4	7.02878e-12	0.000000000000000E+000	0.000000000000000E+000	0.000000000000000E+000	0.000000000000000E+000	0.000000000000000E+000	2.34133e-08	2.34133e-08	0.0000000E+000	2	-2.53034e-07
2	1	0	0	0	0	0	7.5	-0.300024	-0.300222	0.00737598	5.22787e-05	5.22787e-05	41	3.3118e-07	4	9.94229e-11	0.000000000000000E+000	62410.6	0.000000000000000E+000	0.2	0.000000000000000E+000	3.3118e-07	3.3118e-07	0.0000000E+000	2	-2.21443e-06
2	1	0	0	0	0	0	7.7	-0.300024	-0.30023	0.00954299	5.42437e-05	5.42437e-05	41	8.77019e-07	4	2.63296e-10	0.000000000000000E+000	117974	0.000000000000000E+000	0.4	0.000000000000000E+000	8.77019e-07	8.77019e-07	0.0000000E+000	2	-2.86509e-06
2	1	0	0	0	0	0	7.9	-0.300024	-0.300276	0.00324012	5.52129e-05	5.52129e-05	41	1.14625e-06	4	3.44124e-10	0.000000000000000E+000	56816.6	0.000000000000000E+000	0.6	0.000000000000000E+000	1.14625e-06	1.14625e-06	0.0000000E+000	2	-9.7293e-07
2	1	0	0	0	0	0	8.1	-0.300024	-0.300222	-2.86793e-05	5.53209e-05	5.53209e-05	41	-7.96646e-10	5	3.53372e-10	2.39071e-13	369307	0.000000000000000E+000	0.000000000000000E+000	7.96646e-10	0.000000000000000E+000	7.96646e-10	0.0000000E+000	2	8.61015e-09
2	0	0	0	0	0	0	8.3	-0.300024	-0.300249	-0.00086883	5.51744e-05	5.51744e-05	41	-4.14974e-08	5	3.53372e-10	1.24587e-11	369307	5582.09	0.2	4.14974e-08	0.000000000000000E+000	4.14974e-08	0.0000000E+000	2	2.60865e-07
2	0	0	0	0	0	0	8.5	-0.300024	-0.30023	-0.0010655	5.49656e-05	5.49656e-05	41	-9.95019e-08	5	3.53372e-10	2.98731e-11	369307	46950.9	0.4	9.95019e-08	0.000000000000000E+000	9.95019e-08	0.0000000E+000	2	3.19896e-07
2	0	0	0	0	0	0	8.7	-0.300024	-0.300264	-0.00118509	5.47338e-05	5.47338e-05	41	-1.63884e-07	5	3.53372e-10	4.92027e-11	369307	14040.1	0.6	1.63884e-07	0.000000000000000E+000	1.63884e-07	0.0000000E+000	2	3.55839e-07
2	0	0	0	0	0	0	8.9	-0.300024	-0.300268	-0.00129509	5.44806e-05	5.44806e-05	41	-2.34234e-07	5	3.53372e-10	7.03249e-11	369307	18385	0.8	2.34234e-07	0.000000000000000E+000	2.34234e-07	0.0000000E+000	2	3.88873e-07
2	0	0	0	0	0	0	9.1	-0.300024	-0.300218	-0.00141978	5.42023e-05	5.42023e-05	41	-3.11518e-07	5	3.53372e-10	9.35284e-11	369307	291706	1	3.11518e-07	0.000000000000000E+000	3.11518e-07	0.0000000E+000	2	4.26245e-07
2	0	0	0	0	0	0	9.3	-0.300024	-0.300245	-0.00154617	5.38989e-05	5.38989e-05	41	-3.958e-07	5	3.53372e-10	1.18833e-10	369307	62173	1.2	3.958e-07	0.000000000000000E+000	3.958e-07	0.0000000E+000	2	4.64231e-07
2	0	0	0	0	0	0	9.5	-0.300024	-0.30026	-0.00162997	5.35766e-05	5.35766e-05	41	-4.85325e-07	5	3.53372e-10	1.45713e-10	369307	45729.5	1.4	4.85325e-07	0.000000000000000E+000	4.85325e-07	0.0000000E+000	2	4.89417e-07
2	0	0	0	0	0	0	9.7	-0.300024	-0.300245	-0.00148491	5.32652e-05	5.32652e-05	41	-5.71837e-07	5	3.53372e-10	1.71686e-10	369307	89825.3	1.6	5.71837e-07	0.000000000000000E+000	5.71837e-07	0.0000000E+000	2	4.45837e-07
2	1	0	0	0	0	0	9.9	-0.300024	-0.30026	0.000405718	5.3213e-05	5.3213e-05	41	1.12699e-08	6	3.38383e-12	0.000000000000000E+000	0.000000000000000E+000	0.000000000000000E+000	0.000000000000000E+000	0.000000000000000E+000	1.12699e-08	1.12699e-08	0.0000000E+000	3	-1.21821e-07
2	1	0	0	0	0	0	10.1	-0.300024	-0.300276	0.00698361	5.42058e-05	5.42058e-05	41	2.87056e-07	6	8.6195e-11	0.000000000000000E+000	67592.9	0.000000000000000E+000	0.2	0.000000000000000E+000	2.87056e-07	2.87056e-07	0.0000000E+000	3	-2.09701e-06
2	1	0	0	0	0	0	10.3	-0.300024	-0.300226	0.012761	5.66297e-05	5.66297e-05	41	9.60348e-07	6	2.88332e-10	0.000000000000000E+000	100525	0.000000000000000E+000	0.4	0.000000000000000E+000	9.60348e-07	9.60348e-07	0.0000000E+000	3	-3.83118e-06
2	1	0	0	0	0	0	10.5	-0.300024	-0.300218	0.00787338	5.84954e-05	5.84954e-05	41	1.47861e-06	6	4.43928e-10	0.000000000000000E+000	126584	0.000000000000000E+000	0.6	0.000000000000000E+000	1.47861e-06	1.47861e-06	0.0000000E+000	3	-2.36373e-06
2	1	0	0	0	0	0	10.7	-0.300024	-0.300226	0.00134354	5.9005e-05	5.9005e-05	41	1.62017e-06	6	4.86428e-10	0.000000000000000E+000	169593	0.000000000000000E+000	0.8	0.000000000000000E+000	1.62017e-06	1.62017e-06	0.0000000E+000	3	-4.03365e-07
2	0	0	0	0	0	0	10.9	-0.300024	-0.300234	-0.000184116	5.90213e-05	5.90213e-05	41	-5.11433e-09	7	4.89321e-10	1.53551e-12	153448	0.000000000000000E+000	0.000000000000000E+000	5.11433e-09	0.000000000000000E+000	5.11433e-09	0.0000000E+000	3	5.52778e-08
2	0	0	0	0	0	0	11.1	-0.300024	-0.300207	-0.00113058	5.88396e-05	5.88396e-05	41	-5.55845e-08	7	4.89321e-10	1.66868e-11	153448	7477.04	0.2	5.55845e-08	0.000000000000000E+000	5.55845e-08	0.0000000E+000	3	3.39409e-07
2	0	0	0	0	0	0	11.3	-0.300024	-0.300264	-0.00159667	5.85315e-05	5.85315e-05	41	-1.41172e-07	7	4.89321e-10	4.2384e-11	153448	16620.9	0.4	1.41172e-07	0.000000000000000E+000	1.41172e-07	0.0000000E+000	3	4.79423e-07
2	1	0	0	0	0	0	11.5	-0.300024	-0.30023	-0.000256873	5.83705e-05	5.83705e-05	41	-1.85902e-07	7	4.89321e-10	5.58141e-11	153448	175439	0.6	1.85902e-07	0.000000000000000E+000	1.85902e-07	11.4064	3	7.7121e-08
2	1	0	0	0	0	0	11.7	-0.300024	-0.300207	0.00533391	5.91133e-05	5.91133e-05	41	2.06348e-07	8	6.19464e-11	0.000000000000000E+000	97367.1	0.000000000000000E+000	0.1	0.000000000000000E+000	2.06348e-07	2.06348e-07	0.0000000E+000	4	-1.60128e-06
2	1	0	0	0	0	0	11.9	-0.300024	-0.300234	0.00865788	6.07915e-05	6.07915e-05	41	6.72516e-07	8	2.01919e-10	0.000000000000000E+000	70396.2	0.000000000000000E+000	0.3	0.000000000000000E+000	6.72516e-07	6.72516e-07	0.0000000E+000	4	-2.59939e-06
2	1	0	0	0	0	0	12.1	-0.300024	-0.300253	0.00395458	6.18408e-05	6.18408e-05	41	9.63974e-07	8	2.8943e-10	0.000000000000000E+000	64835.3	0.000000000000000E+000	0.5	0.000000000000000E+000	9.63974e-07	9.63974e-07	0.0000000E+000	4	-1.18737e-06
2	1	0	0	0	0	0	12.3	-0.300024	-0.300226	0.0047108	6.25934e-05	6.25934e-05	41	1.17304e-06	8	3.52192e-10	0.000000000000000E+000	157793	0.000000000000000E+000	0.7	0.000000000000000E+000	1.17304e-06	1.17304e-06	0.0000000E+000	4	-1.4143e-06
2	1	0	0	0	0	0	12.5	-0.300024	-0.300211	0.0131356	6.47857e-05	6.47857e-05	41	1.78202e-06	8	5.3502e-10	0.000000000000000E+000	559118	0.000000000000000E+000	0.9	0.000000000000000E+000	1.78202e-06	1.78202e-06	0.0000000E+000	4	-3.94344e-06
2	1	0	0	0	0	0	12.7	-0.300024	-0.300211	0.0181284	6.82413e-05	6.82413e-05	41	2.74191e-06	8	8.23196e-10	0.000000000000000E+000	860289	0.000000000000000E+000	1.1	0.000000000000000E+000	2.74191e-06	2.74191e-06	0.0000000E+000	4	-5.44235e-06
2	1	0	0	0	0	0	12.9	-0.300024	-0.300222	0.0178124	7.18656e-05	7.18656e-05	41	3.74864e-06	8	1.12544e-09	0.000000000000000E+000	588843	0.000000000000000E+000	1.3	0.000000000000000E+000	3.74864e-06	3.74864e-06	0.0000000E+000	4	-5.34768e-06
2	1	0	0	0	0	0	13.1	-0.300024	-0.30026	0.0155772	7.51109e-05	7.51109e-05	41	4.65012e-06	8	1.3961e-09	0.000000000000000E+000	273741	0.000000000000000E+000	1.5	0.000000000000000E+000	4.65012e-06	4.65012e-06	0.0000000E+000	4	-4.67721e-06
2	1	0	0	0	0	0	13.3	-0.300024	-0.30018	0.0132885	7.78768e-05	7.78768e-05	41	5.41844e-06	8	1.62674e-09	0.000000000000000E+000	1.01951e+06	0.000000000000000E+000	1.7	0.000000000000000E+000	5.41844e-06	5.41844e-06	0.0000000E+000	4	-3.98896e-06
2	1	0	0	0	0	0	13.5	-0.300024	-0.300211	0.0114306	8.0251e-05	8.0251e-05	41	6.07792e-06	8	1.82474e-09	0.000000000000000E+000	1.91195e+06	0.000000000000000E+000	1.9	0.000000000000000E+000	6.07792e-06	6.07792e-06	0.0000000E+000	4	-3.4316e-06
2	1	0	0	0	0	0	13.7	-0.300024	-0.300237	0.00992319	8.23081e-05	8.23081e-05	41	6.64935e-06	8	1.99629e-09	0.000000000000000E+000	626532	0.000000000000000E+000	2.1	0.000000000000000E+000	6.64935e-06	6.64935e-06	0.0000000E+000	4	-2.97931e-06
2	1	0	0	0	0	0	13.9	-0.300024	-0.300241	0.00890002	8.41346e-05	8.41346e-05	41	7.1567e-06	8	2.14862e-09	0.000000000000000E+000	612686	0.000000000000000E+000	2.3	0.000000000000000E+000	7.1567e-06	7.1567e-06	0.0000000E+000	4	-2.67215e-06
2	1	0	0	0	0	0	14.1	-0.300024	-0.300245	0.00812189	8.57962e-05	8.57962e-05	41	7.61825e-06	8	2.2872e-09	0.000000000000000E+000	597956	0.000000000000000E+000	2.5	0.000000000000000E+000	7.61825e-06	7.61825e-06	0.0000000E+000	4	-2.43856e-06
2	1	0	0	0	0	0	14.3	-0.300024	-0.300203	0.0074661	8.73166e-05	8.73166e-05	41	8.04061e-06	8	2.414e-09	0.000000000000000E+000	7.58807e+06	0.000000000000000E+000	2.7	0.000000000000000E+000	8.04061e-06	8.04061e-06	0.0000000E+000	4	-2.24134e-06
2	1	0	0	0	0	0	14.5	-0.300024	-0.300203	0.00707432	8.87552e-05	8.87552e-05	41	8.44021e-06	8	2.53397e-09	0.000000000000000E+000	7.96518e+06	0.000000000000000E+000	2.9	0.000000000000000E+000	8.44021e-06	8.44021e-06	0.0000000E+000	4	-2.12373e-06
2	1	0	0	0	0	0	14.7	-0.300024	-0.300237	0.00667444	9.01082e-05	9.01082e-05	41	8.81605e-06	8	2.64681e-09	0.000000000000000E+000	830689	0.000000000000000E+000	3.1	0.000000000000000E+000	8.81605e-06	8.81605e-06	0.0000000E+000	4	-2.00392e-06
2	1	0	0	0	0	0	14.9	-0.300024	-0.300325	0.00647277	9.14106e-05	9.14106e-05	41	9.17781e-06	8	2.75544e-09	0.000000000000000E+000	261904	0.000000000000000E+000	3.3	0.000000000000000E+000	9.17781e-06	9.17781e-06	0.0000000E+000	4	-1.94394e-06
2	1	0	0	0	0	0	15.1	-0.300024	-0.300264	0.00623512	9.26739e-05	9.26739e-05	41	9.52873e-06	8	2.8608e-09	0.000000000000000E+000	527754	0.000000000000000E+000	3.5	0.000000000000000E+000	9.52873e-06	9.52873e-06	0.0000000E+000	4	-1.87218e-06
2	1	0	0	0	0	0	15.3	-0.300024	-0.300184	0.00607038	9.38944e-05	9.38944e-05	41	9.86776e-06	8	2.96258e-09	0.000000000000000E+000	2.31904e+06	0.000000000000000E+000	3.7	0.000000000000000E+000	9.86776e-06	9.86776e-06	0.0000000E+000	4	-1.82223e-06
2	1	0	0	0	0	0	15.5	-0.300024	-0.300226	0.00589058	9.50801e-05	9.50801e-05	41	1.01971e-05	8	3.06146e-09	0.000000000000000E+000	1.37168e+06	0.000000000000000E+000	3.9	0.000000000000000E+000	1.01971e-05	1.01971e-05	0.0000000E+000	4	-1.76851e-06
2	1	0	0	0	0	0	15.7	-0.300024	-0.300241	0.00571873	9.62324e-05	9.62324e-05	41	1.05172e-05	8	3.15756e-09	0.000000000000000E+000	900379	0.000000000000000E+000	4.1	0.000000000000000E+000	1.05172e-05	1.05172e-05	0.0000000E+000	4	-1.717e-06
2	1	0	0	0	0	0	15.9	-0.300024	-0.300249	0.00562426	9.73607e-05	9.73607e-05	41	1.08306e-05	8	3.25165e-09	0.000000000000000E+000	784349	0.000000000000000E+000	4.3	0.000000000000000E+000	1.08306e-05	1.08306e-05	0.0000000E+000	4	-1.68868e-06
2	1	0	0	0	0	0	16.1	-0.300024	-0.300203	0.00552129	9.84716e-05	9.84716e-05	41	1.11392e-05	8	3.34429e-09	0.000000000000000E+000	1.05123e+07	0.000000000000000E+000	4.5	0.000000000000000E+000	1.11392e-05	1.11392e-05	0.0000000E+000	4	-1.65751e-06
2	1	0	0	0	0	0	16.3	-0.300024	-0.300241	0.00548526	9.95681e-05	9.95681e-05	41	1.14438e-05	8	3.43574e-09	0.000000000000000E+000	979705	0.000000000000000E+000	4.7	0.000000000000000E+000	1.14438e-05	1.14438e-05	0.0000000E+000	4	-1.6469e-06
2	1	0	0	0	0	0	16.5	-0.300024	-0.300176	0.00537243	0.000100648	0.000100648	41	1.17437e-05	8	3.52577e-09	0.000000000000000E+000	1.84232e+06	0.000000000000000E+000	4.9	0.000000000000000E+000	1.17437e-05	1.17437e-05	0.0000000E+000	4	-1.61268e-06
2	1	0	0	0	0	0	16.7	-0.300024	-0.300203	0.00536136	0.00010172	0.00010172	41	1.20415e-05	8	3.61519e-09	0.000000000000000E+000	1.13638e+07	0.000000000000000E+000	5.1	0.000000000000000E+000	1.20415e-05	1.20415e-05	0.0000000E+000	4	-1.6095e-06
2	1	0	0	0	0	0	16.9	-0.300024	-0.300214	0.00531094	0.000102786	0.000102786	41	1.23376e-05	8	3.70407e-09	0.000000000000000E+000	2.90512e+06	0.000000000000000E+000	5.3	0.000000000000000E+000	1.23376e-05	1.23376e-05	0.0000000E+000	4	-1.59442e-06
2	1	0	0	0	0	0	17.1	-0.300024	-0.300264	0.0052509	0.00010384	0.00010384	41	1.26305e-05	8	3.79201e-09	0.000000000000000E+000	699867	0.000000000000000E+000	5.5	0.000000000000000E+000	1.26305e-05	1.26305e-05	0.0000000E+000	4	-1.57666e-06
2	1	0	0	0	0	0	17.3	-0.300024	-0.300256	0.00518436	0.00010488	0.00010488	41	1.29194e-05	8	3.87876e-09	0.000000000000000E+000	811128	0.000000000000000E+000	5.7	0.000000000000000E+000	1.29194e-05	1.29194e-05	0.0000000E+000	4	-1.55664e-06
2	1	0	0	0	0	0	17.5	-0.300024	-0.300226	0.00514141	0.000105911	0.000105911	41	1.32058e-05	8	3.96475e-09	0.000000000000000E+000	1.7764e+06	0.000000000000000E+000	5.9	0.000000000000000E+000	1.32058e-05	1.32058e-05	0.0000000E+000	4	-1.54359e-06
2	1	0	0	0	0	0	17.7	-0.300024	-0.300241	0.00508845	0.000106933	0.000106933	41	1.34896e-05	8	4.04996e-09	0.000000000000000E+000	1.15485e+06	0.000000000000000E+000	6.1	0.000000000000000E+000	1.34896e-05	1.34896e-05	0.0000000E+000	4	-1.52776e-06
2	1	0	0	0	0	0	17.9	-0.300024	-0.300199	0.00512462	0.000107956	0.000107956	41	1.37737e-05	8	4.13526e-09	0.000000000000000E+000	0.000000000000000E+000	0.000000000000000E+000	6.3	0.000000000000000E+000	1.37737e-05	1.37737e-05	0.0000000E+000	4	-1.53841e-06
2	1	0	0	0	0	0	18.1	-0.300024	-0.30026	0.00510938	0.000108981	0.000108981	41	1.40585e-05	8	4.22078e-09	0.000000000000000E+000	827589	0.000000000000000E+000	6.5	0.000000000000000E+000	1.40585e-05	1.40585e-05	0.0000000E+000	4	-1.53414e-06
2	1	0	0	0	0	0	18.3	-0.300024	-0.300222	0.0050814	0.000109997	0.000109997	41	1.43408e-05	8	4.30552e-09	0.000000000000000E+000	2.25267e+06	0.000000000000000E+000	6.7	0.000000000000000E+000	1.43408e-05	1.43408e-05	0.0000000E+000	4	-1.52555e-06
2	1	0	0	0	0	0	18.5	-0.300024	-0.300218	0.00513041	0.000111022	0.000111022	41	1.46253e-05	8	4.39094e-09	0.000000000000000E+000	2.75613e+06	0.000000000000000E+000	6.9	0.000000000000000E+000	1.46253e-05	1.46253e-05	0.0000000E+000	4	-1.54024e-06
2	1	0	0	0	0	0	18.7	-0.300024	-0.300241	0.00498836	0.000112024	0.000112024	41	1.49037e-05	8	4.47453e-09	0.000000000000000E+000	1.27591e+06	0.000000000000000E+000	7.1	0.000000000000000E+000	1.49037e-05	1.49037e-05	0.0000000E+000	4	-1.49771e-06
2	1	0	0	0	0	0	18.9	-0.300024	-0.300226	0.00503189	0.00011303	0.00011303	41	1.51832e-05	8	4.55844e-09	0.000000000000000E+000	2.0424e+06	0.000000000000000E+000	7.3	0.000000000000000E+000	1.51832e-05	1.51832e-05	0.0000000E+000	4	-1.5107e-06
2	1	0	0	0	0	0	19.1	-0.300024	-0.30023	0.00498629	0.00011403	0.00011403	41	1.5461e-05	8	4.64184e-09	0.000000000000000E+000	1.8203e+06	0.000000000000000E+000	7.5	0.000000000000000E+000	1.5461e-05	1.5461e-05	0.0000000E+000	4	-1.49703e-06
2	1	0	0	0	0	0	19.3	-0.300024	-0.300207	0.00496948	0.000115026	0.000115026	41	1.57377e-05	8	4.72491e-09	0.000000000000000E+000	7.42596e+06	0.000000000000000E+000	7.7	0.000000000000000E+000	1.57377e-05	1.57377e-05	0.0000000E+000	4	-1.49187e-06
2	1	0	0	0	0	0	19.5	-0.300024	-0.300199	0.00489121	0.000116005	0.000116005	41	1.60097e-05	8	4.80658e-09	0.000000000000000E+000	0.000000000000000E+000	0.000000000000000E+000	7.9	0.000000000000000E+000	1.60097e-05	1.60097e-05	0.0000000E+000	4	-1.46834e-06
2	1	0	0	0	0	0	19.7	-0.300024	-0.300256	0.00487147	0.000116983	0.000116983	41	1.62812e-05	8	4.88811e-09	0.000000000000000E+000	1.0222e+06	0.000000000000000E+000	8.1	0.000000000000000E+000	1.62812e-05	1.62812e-05	0.0000000E+000	4	-1.46269e-06
2	1	0	0	0	0	0	19.9	-0.300024	-0.300218	0.00482424	0.000117948	0.000117948	41	1.65493e-05	8	4.96859e-09	0.000000000000000E+000	3.1187e+06	0.000000000000000E+000	8.3	0.000000000000000E+000	1.65493e-05	1.65493e-05	0.0000000E+000	4	-1.44832e-06
2	1	0	0	0	0	0	20.1	-0.300024	-0.300218	0.00481578	0.000118912	0.000118912	41	1.68171e-05	8	5.04897e-09	0.000000000000000E+000	3.16917e+06	0.000000000000000E+000	8.5	0.000000000000000E+000	1.68171e-05	1.68171e-05	0.0000000E+000	4	-1.44579e-06
2	1	0	0	0	0	0	20.3	-0.300024	-0.300234	0.00477752	0.000119871	0.000119871	41	1.70835e-05	8	5.12896e-09	0.000000000000000E+000	1.78668e+06	0.000000000000000E+000	8.7	0.000000000000000E+000	1.70835e-05	1.70835e-05	0.0000000E+000	4	-1.43437e-06
2	1	0	0	0	0	0	20.5	-0.300024	-0.300245	0.00479355	0.000120829	0.000120829	41	1.73497e-05	8	5.20888e-09	0.000000000000000E+000	1.36178e+06	0.000000000000000E+000	8.9	0.000000000000000E+000	1.73497e-05	1.73497e-05	0.0000000E+000	4	-1.43924e-06
2	1	0	0	0	0	0	20.7	-0.300024	-0.300218	0.00473267	0.000121779	0.000121779	41	1.76134e-05	8	5.28805e-09	0.000000000000000E+000	3.31923e+06	0.000000000000000E+000	9.1	0.000000000000000E+000	1.76134e-05	1.76134e-05	0.0000000E+000	4	-1.42083e-06
2	1	0	0	0	0	0	20.9	-0.300024	-0.300203	0.00465814	0.000122713	0.000122713	41	1.78728e-05	8	5.36594e-09	0.000000000000000E+000	1.68669e+07	0.000000000000000E+000	9.3	0.000000000000000E+000	1.78728e-05	1.78728e-05	0.0000000E+000	4	-1.39839e-06
2	1	0	0	0	0	0	21.1	-0.300024	-0.30031	0.00466609	0.000123645	0.000123645	41	1.81318e-05	8	5.44371e-09	0.000000000000000E+000	588778	0.000000000000000E+000	9.5	0.000000000000000E+000	1.81318e-05	1.81318e-05	0.0000000E+000	4	-1.40127e-06
2	1	0	0	0	0	0	21.3	-0.300024	-0.300237	0.00467103	0.000124582	0.000124582	41	1.83921e-05	8	5.52185e-09	0.000000000000000E+000	1.73164e+06	0.000000000000000E+000	9.7	0.000000000000000E+000	1.83921e-05	1.83921e-05	0.0000000E+000	4	-1.40242e-06
2	1	0	0	0	0	0	21.5	-0.300024	-0.300207	0.00461074	0.000125508	0.000125508	41	1.86494e-05	8	5.59908e-09	0.000000000000000E+000	8.76563e+06	0.000000000000000E+000	9.9	0.000000000000000E+000	1.86494e-05	1.86494e-05	0.0000000E+000	4	-1.38417e-06
2	1	0	0	0	0	0	21.7	-0.300024	-0.30023	0.00458477	0.000126426	0.000126426	41	1.89042e-05	8	5.67559e-09	0.000000000000000E+000	2.22568e+06	0.000000000000000E+000	10.1	0.000000000000000E+000	1.89042e-05	1.89042e-05	0.0000000E+000	4	-1.37649e-06
2	1	0	0	0	0	0	21.9	-0.300024	-0.300241	0.00454046	0.000127337	0.000127337	41	1.91573e-05	8	5.75157e-09	0.000000000000000E+000	1.64006e+06	0.000000000000000E+000	10.3	0.000000000000000E+000	1.91573e-05	1.91573e-05	0.0000000E+000	4	-1.36323e-06
2	1	0	0	0	0	0	22.1	-0.300024	-0.300245	0.00445127	0.000128234	0.000128234	41	1.94066e-05	8	5.82642e-09	0.000000000000000E+000	1.52322e+06	0.000000000000000E+000	10.5	0.000000000000000E+000	1.94066e-05	1.94066e-05	0.0000000E+000	4	-1.33647e-06
2	1	0	0	0	0	0	22.3	-0.300024	-0.300176	0.00439157	0.000129116	0.000129116	41	1.96516e-05	8	5.89996e-09	0.000000000000000E+000	3.0829e+06	0.000000000000000E+000	10.7	0.000000000000000E+000	1.96516e-05	1.96516e-05	0.0000000E+000	4	-1.31825e-06
2	1	0	0	0	0	0	22.5	-0.300024	-0.300222	0.00437472	0.000129992	0.000129992	41	1.98948e-05	8	5.97297e-09	0.000000000000000E+000	3.12511e+06	0.000000000000000E+000	10.9	0.000000000000000E+000	1.98948e-05	1.98948e-05	0.0000000E+000	4	-1.31339e-06
2	1	0	0	0	0	0	22.7	-0.300024	-0.300253	0.00429916	0.000130855	0.000130855	41	2.01347e-05	8	6.045e-09	0.000000000000000E+000	1.35422e+06	0.000000000000000E+000	11.1	0.000000000000000E+000	2.01347e-05	2.01347e-05	0.0000000E+000	4	-1.29083e-06
2	1	0	0	0	0	0	22.9	-0.300024	-0.300276	0.00423494	0.000131706	0.000131706	41	2.03709e-05	8	6.11592e-09	0.000000000000000E+000	959344	0.000000000000000E+000	11.3	0.000000000000000E+000	2.03709e-05	2.03709e-05	0.0000000E+000	4	-1.27165e-06
2	1	0	0	0	0	0	23.1	-0.300024	-0.300211	0.00425011	0.000132553	0.000132553	41	2.06064e-05	8	6.18663e-09	0.000000000000000E+000	6.48221e+06	0.000000000000000E+000	11.5	0.000000000000000E+000	2.06064e-05	2.06064e-05	0.0000000E+000	4	-1.27593e-06
2	1	0	0	0	0	0	23.3	-0.300024	-0.300218	0.00418216	0.000133396	0.000133396	41	2.08403e-05	8	6.25685e-09	0.000000000000000E+000	3.92734e+06	0.000000000000000E+000	11.7	0.000000000000000E+000	2.08403e-05	2.08403e-05	0.0000000E+000	4	-1.25556e-06
2	1	0	0	0	0	0	23.5	-0.300024	-0.300249	0.00414629	0.000134224	0.000134224	41	2.10706e-05	8	6.32599e-09	0.000000000000000E+000	1.52592e+06	0.000000000000000E+000	11.9	0.000000000000000E+000	2.10706e-05	2.10706e-05	0.0000000E+000	4	-1.24492e-06
2	1	0	0	0	0	0	23.7	-0.300024	-0.300218	0.0040918	0.000135047	0.000135047	41	2.12991e-05	8	6.39459e-09	0.000000000000000E+000	4.0138e+06	0.000000000000000E+000	12.1	0.000000000000000E+000	2.12991e-05	2.12991e-05	0.0000000E+000	4	-1.22843e-06
2	1	0	0	0	0	0	23.9	-0.300024	-0.300207	0.00402806	0.000135856	0.000135856	41	2.15236e-05	8	6.462e-09	0.000000000000000E+000	1.01561e+07	0.000000000000000E+000	12.3	0.000000000000000E+000	2.15236e-05	2.15236e-05	0.0000000E+000	4	-1.20925e-06
2	1	0	0	0	0	0	24.1	-0.300024	-0.300161	0.00397969	0.000136654	0.000136654	41	2.17454e-05	8	6.52857e-09	0.000000000000000E+000	2.04735e+06	0.000000000000000E+000	12.5	0.000000000000000E+000	2.17454e-05	2.17454e-05	0.0000000E+000	4	-1.19455e-06
2	1	0	0	0	0	0	24.3	-0.300024	-0.300226	0.00387025	0.000137434	0.000137434	41	2.1962e-05	8	6.59359e-09	0.000000000000000E+000	2.95425e+06	0.000000000000000E+000	12.7	0.000000000000000E+000	2.1962e-05	2.1962e-05	0.0000000E+000	4	-1.16195e-06
2	1	0	0	0	0	0	24.5	-0.300024	-0.30023	0.00385352	0.000138205	0.000138205	41	2.21764e-05	8	6.65797e-09	0.000000000000000E+000	2.61093e+06	0.000000000000000E+000	12.9	0.000000000000000E+000	2.21764e-05	2.21764e-05	0.0000000E+000	4	-1.15694e-06
2	1	0	0	0	0	0	24.7	-0.300024	-0.300226	0.00377925	0.000138964	0.000138964	41	2.23871e-05	8	6.72123e-09	0.000000000000000E+000	3.01144e+06	0.000000000000000E+000	13.1	0.000000000000000E+000	2.23871e-05	2.23871e-05	0.0000000E+000	4	-1.13463e-06
2	1	0	0	0	0	0	24.9	-0.300024	-0.300234	0.00369189	0.000139708	0.000139708	41	2.25937e-05	8	6.78327e-09	0.000000000000000E+000	2.36502e+06	0.000000000000000E+000	13.3	0.000000000000000E+000	2.25937e-05	2.25937e-05	0.0000000E+000	4	-1.10843e-06
2	1	0	0	0	0	0	25.1	-0.300024	-0.300218	0.00363959	0.000140437	0.000140437	41	2.27963e-05	8	6.84409e-09	0.000000000000000E+000	4.29595e+06	0.000000000000000E+000	13.5	0.000000000000000E+000	2.27963e-05	2.27963e-05	0.0000000E+000	4	-1.09267e-06
2	1	0	0	0	0	0	25.3	-0.300024	-0.300199	0.00357074	0.000141156	0.000141156	41	2.29959e-05	8	6.90402e-09	0.000000000000000E+000	0.000000000000000E+000	0.000000000000000E+000	13.7	0.000000000000000E+000	2.29959e-05	2.29959e-05	0.0000000E+000	4	-1.07193e-06
2	1	0	0	0	0	0	25.5	-0.300024	-0.300199	0.00351747	0.000141862	0.000141862	41	2.3192e-05	8	6.96289e-09	0.000000000000000E+000	0.000000000000000E+000	0.000000000000000E+000	13.9	0.000000000000000E+000	2.3192e-05	2.3192e-05	0.0000000E+000	4	-1.05594e-06
2	1	0	0	0	0	0	25.7	-0.300024	-0.300195	0.00342568	0.000142553	0.000142553	41	2.3384e-05	8	7.02053e-09	0.000000000000000E+000	2.2068e+07	0.000000000000000E+000	14.1	0.000000000000000E+000	2.3384e-05	2.3384e-05	0.0000000E+000	4	-1.02837e-06
2	1	0	0	0	0	0	25.9	-0.300024	-0.30018	0.00333428	0.000143221	0.000143221	41	2.35695e-05	8	7.0762e-09	0.000000000000000E+000	4.43473e+06	0.000000000000000E+000	14.3	0.000000000000000E+000	2.35695e-05	2.35695e-05	0.0000000E+000	4	-1.00089e-06
2	1	0	0	0	0	0	26.1	-0.300024	-0.300203	0.00324726	0.000143876	0.000143876	41	2.37516e-05	8	7.13088e-09	0.000000000000000E+000	2.24148e+07	0.000000000000000E+000	14.5	0.000000000000000E+000	2.37516e-05	2.37516e-05	0.0000000E+000	4	-9.74837e-07
2	1	0	0	0	0	0	26.3	-0.300024	-0.300218	0.00318512	0.000144517	0.000144517	41	2.39296e-05	8	7.18432e-09	0.000000000000000E+000	4.50952e+06	0.000000000000000E+000	14.7	0.000000000000000E+000	2.39296e-05	2.39296e-05	0.0000000E+000	4	-9.5623e-07
2	1	0	0	0	0	0	26.5	-0.300024	-0.300226	0.00308411	0.000145138	0.000145138	41	2.41021e-05	8	7.2361e-09	0.000000000000000E+000	3.24213e+06	0.000000000000000E+000	14.9	0.000000000000000E+000	2.41021e-05	2.41021e-05	0.0000000E+000	4	-9.25931e-07
2	1	0	0	0	0	0	26.5464	-0.300024	-0.300203	0.00302571	0.000145278	0.000145278	41	2.41411e-05	8	7.2478e-09	0.000000000000000E+000	2.27824e+07	0.000000000000000E+000	14.9464	0.000000000000000E+000	2.41411e-05	2.41411e-05	0.0000000E+000	4	-9.08328e-07