File: Fig 3/Fig 3_RRDE-np-Fe2O3_5mVs.mpt
mode	ox/red	error	control changes	Ns changes	counter inc.	Ns	time/s	control/V	Ewe/V	<I>/mA	dQ/C	(Q-Qo)/C	I Range	Q charge/discharge/mA.h	half cycle	Energy charge/W.h	Energy discharge/W.h	Capacitance charge/µF	Capacitance discharge/µF	step time/s	Q discharge/mA.h	Q charge/mA.h	Capacity/mA.h	Efficiency/%	cycle number	P/W
2	0	1	0	0	0	0	0.1	-0.299985	-0.300379	-0.124165	-1.24165e-05	-1.24165e-05	41	-3.44902e-06	0	0.000000000000000E+000	1.03601e-09	0.000000000000000E+000	0.000000000000000E+000	0.1	3.44902e-06	0.000000000000000E+000	3.44902e-06	0.0000000E+000	0.000000000000000E+000	3.72965e-05
2	0	0	0	0	0	0	0.5	-0.299985	-0.300398	-0.0155455	-2.13214e-05	-2.13214e-05	41	-5.92262e-06	0	0.000000000000000E+000	1.77917e-09	0.000000000000000E+000	1.11611e+06	0.5	5.92262e-06	0.000000000000000E+000	5.92262e-06	0.0000000E+000	0.000000000000000E+000	4.66984e-06
2	0	0	0	0	0	0	0.9	-0.299985	-0.30041	-0.0122326	-2.66121e-05	-2.66121e-05	41	-7.39225e-06	0	0.000000000000000E+000	2.22068e-09	0.000000000000000E+000	869478	0.9	7.39225e-06	0.000000000000000E+000	7.39225e-06	0.0000000E+000	0.000000000000000E+000	3.6748e-06
2	0	0	0	0	0	0	1.3	-0.299985	-0.300444	-0.0107683	-3.11104e-05	-3.11104e-05	41	-8.64178e-06	0	0.000000000000000E+000	2.59604e-09	0.000000000000000E+000	479069	1.3	8.64178e-06	0.000000000000000E+000	8.64178e-06	0.0000000E+000	0.000000000000000E+000	3.23527e-06
2	0	0	0	0	0	0	1.7	-0.299985	-0.30041	-0.00969574	-3.51419e-05	-3.51419e-05	41	-9.76164e-06	0	0.000000000000000E+000	2.93248e-09	0.000000000000000E+000	1.14817e+06	1.7	9.76164e-06	0.000000000000000E+000	9.76164e-06	0.0000000E+000	0.000000000000000E+000	2.91269e-06
2	0	0	0	0	0	0	2.1	-0.299985	-0.300417	-0.0088859	-3.88212e-05	-3.88212e-05	41	-1.07837e-05	0	0.000000000000000E+000	3.2395e-09	0.000000000000000E+000	1.01371e+06	2.1	1.07837e-05	0.000000000000000E+000	1.07837e-05	0.0000000E+000	0.000000000000000E+000	2.66948e-06
2	0	0	0	0	0	0	2.5	-0.299985	-0.300379	-0.00838932	-4.22247e-05	-4.22247e-05	41	-1.17291e-05	0	0.000000000000000E+000	3.52351e-09	0.000000000000000E+000	0.000000000000000E+000	2.5	1.17291e-05	0.000000000000000E+000	1.17291e-05	0.0000000E+000	0.000000000000000E+000	2.51998e-06
2	0	0	0	0	0	0	2.9	-0.299985	-0.300444	-0.0079463	-4.54654e-05	-4.54654e-05	41	-1.26293e-05	0	0.000000000000000E+000	3.79397e-09	0.000000000000000E+000	699160	2.9	1.26293e-05	0.000000000000000E+000	1.26293e-05	0.0000000E+000	0.000000000000000E+000	2.38742e-06
2	0	0	0	0	0	0	3.3	-0.299985	-0.300456	-0.00780277	-4.86099e-05	-4.86099e-05	41	-1.35028e-05	0	0.000000000000000E+000	4.05639e-09	0.000000000000000E+000	635155	3.3	1.35028e-05	0.000000000000000E+000	1.35028e-05	0.0000000E+000	0.000000000000000E+000	2.34439e-06
2	0	0	0	0	0	0	3.7	-0.299985	-0.30041	-0.00721859	-5.16158e-05	-5.16158e-05	41	-1.43377e-05	0	0.000000000000000E+000	4.30723e-09	0.000000000000000E+000	1.68641e+06	3.7	1.43377e-05	0.000000000000000E+000	1.43377e-05	0.0000000E+000	0.000000000000000E+000	2.16853e-06
2	0	0	0	0	0	0	4.1	-0.299985	-0.300387	-0.00713573	-5.44728e-05	-5.44728e-05	41	-1.51313e-05	0	0.000000000000000E+000	4.54565e-09	0.000000000000000E+000	7.08452e+06	4.1	1.51313e-05	0.000000000000000E+000	1.51313e-05	0.0000000E+000	0.000000000000000E+000	2.14348e-06
2	0	0	0	0	0	0	4.5	-0.299985	-0.300452	-0.00749985	-5.74451e-05	-5.74451e-05	41	-1.5957e-05	0	0.000000000000000E+000	4.79369e-09	0.000000000000000E+000	790623	4.5	1.5957e-05	0.000000000000000E+000	1.5957e-05	0.0000000E+000	0.000000000000000E+000	2.25334e-06
2	0	0	0	0	0	0	4.9	-0.299985	-0.300436	-0.00710638	-6.03428e-05	-6.03428e-05	41	-1.67619e-05	0	0.000000000000000E+000	5.0355e-09	0.000000000000000E+000	1.05237e+06	4.9	1.67619e-05	0.000000000000000E+000	1.67619e-05	0.0000000E+000	0.000000000000000E+000	2.13501e-06
2	0	0	0	0	0	0	5.3	-0.299985	-0.300402	-0.00660517	-6.30382e-05	-6.30382e-05	41	-1.75106e-05	0	0.000000000000000E+000	5.26043e-09	0.000000000000000E+000	2.73991e+06	5.3	1.75106e-05	0.000000000000000E+000	1.75106e-05	0.0000000E+000	0.000000000000000E+000	1.98421e-06
2	0	0	0	0	0	0	5.7	-0.299985	-0.300425	-0.00630492	-6.5604e-05	-6.5604e-05	41	-1.82233e-05	0	0.000000000000000E+000	5.47454e-09	0.000000000000000E+000	1.43128e+06	5.7	1.82233e-05	0.000000000000000E+000	1.82233e-05	0.0000000E+000	0.000000000000000E+000	1.89415e-06
2	0	0	0	0	0	0	6.1	-0.299985	-0.300475	-0.00602806	-6.8067e-05	-6.8067e-05	41	-1.89075e-05	0	0.000000000000000E+000	5.68007e-09	0.000000000000000E+000	712176	6.1	1.89075e-05	0.000000000000000E+000	1.89075e-05	0.0000000E+000	0.000000000000000E+000	1.81128e-06
2	0	0	0	0	0	0	6.5	-0.299985	-0.30044	-0.00590344	-7.0447e-05	-7.0447e-05	41	-1.95686e-05	0	0.000000000000000E+000	5.87869e-09	0.000000000000000E+000	1.15195e+06	6.5	1.95686e-05	0.000000000000000E+000	1.95686e-05	0.0000000E+000	0.000000000000000E+000	1.77363e-06
2	0	0	0	0	0	0	6.9	-0.299985	-0.300433	-0.00564091	-7.27375e-05	-7.27375e-05	41	-2.02049e-05	0	0.000000000000000E+000	6.06983e-09	0.000000000000000E+000	1.35895e+06	6.9	2.02049e-05	0.000000000000000E+000	2.02049e-05	0.0000000E+000	0.000000000000000E+000	1.69471e-06
2	0	0	0	0	0	0	7.3	-0.299985	-0.300425	-0.00542046	-7.49517e-05	-7.49517e-05	41	-2.08199e-05	0	0.000000000000000E+000	6.2546e-09	0.000000000000000E+000	1.63203e+06	7.3	2.08199e-05	0.000000000000000E+000	2.08199e-05	0.0000000E+000	0.000000000000000E+000	1.62844e-06
2	0	0	0	0	0	0	7.7	-0.299985	-0.30044	-0.00541085	-7.71019e-05	-7.71019e-05	41	-2.14172e-05	0	0.000000000000000E+000	6.43403e-09	0.000000000000000E+000	1.25893e+06	7.7	2.14172e-05	0.000000000000000E+000	2.14172e-05	0.0000000E+000	0.000000000000000E+000	1.62564e-06
2	0	0	0	0	0	0	8.1	-0.299985	-0.30044	-0.00517347	-7.92017e-05	-7.92017e-05	41	-2.20005e-05	0	0.000000000000000E+000	6.60926e-09	0.000000000000000E+000	1.29322e+06	8.1	2.20005e-05	0.000000000000000E+000	2.20005e-05	0.0000000E+000	0.000000000000000E+000	1.55432e-06
2	0	0	0	0	0	0	8.5	-0.299985	-0.30049	-0.00509586	-8.12727e-05	-8.12727e-05	41	-2.25758e-05	0	0.000000000000000E+000	6.7821e-09	0.000000000000000E+000	733081	8.5	2.25758e-05	0.000000000000000E+000	2.25758e-05	0.0000000E+000	0.000000000000000E+000	1.53125e-06
2	0	0	0	0	0	0	8.9	-0.299985	-0.300425	-0.00494063	-8.32741e-05	-8.32741e-05	41	-2.31317e-05	0	0.000000000000000E+000	6.9491e-09	0.000000000000000E+000	1.81325e+06	8.9	2.31317e-05	0.000000000000000E+000	2.31317e-05	0.0000000E+000	0.000000000000000E+000	1.48429e-06
2	0	0	0	0	0	0	9.3	-0.299985	-0.300417	-0.00482463	-8.52247e-05	-8.52247e-05	41	-2.36735e-05	0	0.000000000000000E+000	7.11188e-09	0.000000000000000E+000	2.22889e+06	9.3	2.36735e-05	0.000000000000000E+000	2.36735e-05	0.0000000E+000	0.000000000000000E+000	1.4494e-06
2	0	0	0	0	0	0	9.7	-0.299985	-0.300391	-0.00471466	-8.71408e-05	-8.71408e-05	41	-2.42058e-05	0	0.000000000000000E+000	7.27176e-09	0.000000000000000E+000	7.57502e+06	9.7	2.42058e-05	0.000000000000000E+000	2.42058e-05	0.0000000E+000	0.000000000000000E+000	1.41624e-06
2	0	0	0	0	0	0	10.1	-0.299985	-0.300429	-0.00468226	-8.9006e-05	-8.9006e-05	41	-2.47239e-05	0	0.000000000000000E+000	7.42741e-09	0.000000000000000E+000	1.78942e+06	10.1	2.47239e-05	0.000000000000000E+000	2.47239e-05	0.0000000E+000	0.000000000000000E+000	1.40669e-06
2	0	0	0	0	0	0	10.5	-0.299985	-0.300414	-0.00458302	-9.0853e-05	-9.0853e-05	41	-2.52369e-05	0	0.000000000000000E+000	7.58154e-09	0.000000000000000E+000	2.63941e+06	10.5	2.52369e-05	0.000000000000000E+000	2.52369e-05	0.0000000E+000	0.000000000000000E+000	1.3768e-06
2	0	0	0	0	0	0	10.9	-0.299985	-0.300391	-0.00447089	-9.26625e-05	-9.26625e-05	41	-2.57396e-05	0	0.000000000000000E+000	7.73253e-09	0.000000000000000E+000	8.05502e+06	10.9	2.57396e-05	0.000000000000000E+000	2.57396e-05	0.0000000E+000	0.000000000000000E+000	1.34301e-06
2	0	0	0	0	0	0	11.3	-0.299985	-0.300448	-0.00433124	-9.44196e-05	-9.44196e-05	41	-2.62277e-05	0	0.000000000000000E+000	7.87916e-09	0.000000000000000E+000	1.37151e+06	11.3	2.62277e-05	0.000000000000000E+000	2.62277e-05	0.0000000E+000	0.000000000000000E+000	1.30131e-06
2	0	0	0	0	0	0	11.7	-0.299985	-0.300391	-0.00437297	-9.61623e-05	-9.61623e-05	41	-2.67117e-05	0	0.000000000000000E+000	8.02457e-09	0.000000000000000E+000	8.35925e+06	11.7	2.67117e-05	0.000000000000000E+000	2.67117e-05	0.0000000E+000	0.000000000000000E+000	1.3136e-06
2	0	0	0	0	0	0	12.1	-0.299985	-0.300425	-0.00428894	-9.78897e-05	-9.78897e-05	41	-2.71916e-05	0	0.000000000000000E+000	8.16871e-09	0.000000000000000E+000	2.13149e+06	12.1	2.71916e-05	0.000000000000000E+000	2.71916e-05	0.0000000E+000	0.000000000000000E+000	1.28851e-06
2	0	0	0	0	0	0	12.5	-0.299985	-0.300398	-0.00419371	-9.95831e-05	-9.95831e-05	41	-2.7662e-05	0	0.000000000000000E+000	8.31003e-09	0.000000000000000E+000	5.18859e+06	12.5	2.7662e-05	0.000000000000000E+000	2.7662e-05	0.0000000E+000	0.000000000000000E+000	1.25978e-06
2	0	0	0	0	0	0	12.9	-0.299985	-0.300421	-0.00416496	-0.000101254	-0.000101254	41	-2.81262e-05	0	0.000000000000000E+000	8.44949e-09	0.000000000000000E+000	2.40448e+06	12.9	2.81262e-05	0.000000000000000E+000	2.81262e-05	0.0000000E+000	0.000000000000000E+000	1.25124e-06
2	0	0	0	0	0	0	13.3	-0.299985	-0.300398	-0.00403655	-0.000102892	-0.000102892	41	-2.85811e-05	0	0.000000000000000E+000	8.58613e-09	0.000000000000000E+000	5.36099e+06	13.3	2.85811e-05	0.000000000000000E+000	2.85811e-05	0.0000000E+000	0.000000000000000E+000	1.21257e-06
2	0	0	0	0	0	0	13.7	-0.299985	-0.300387	-0.0039894	-0.000104508	-0.000104508	41	-2.903e-05	0	0.000000000000000E+000	8.72099e-09	0.000000000000000E+000	1.35919e+07	13.7	2.903e-05	0.000000000000000E+000	2.903e-05	0.0000000E+000	0.000000000000000E+000	1.19836e-06
2	0	0	0	0	0	0	14.1	-0.299985	-0.300448	-0.00402619	-0.000106105	-0.000106105	41	-2.94736e-05	0	0.000000000000000E+000	8.85427e-09	0.000000000000000E+000	1.54125e+06	14.1	2.94736e-05	0.000000000000000E+000	2.94736e-05	0.0000000E+000	0.000000000000000E+000	1.20966e-06
2	0	0	0	0	0	0	14.5	-0.299985	-0.300429	-0.0039062	-0.000107686	-0.000107686	41	-2.99127e-05	0	0.000000000000000E+000	8.98617e-09	0.000000000000000E+000	2.16497e+06	14.5	2.99127e-05	0.000000000000000E+000	2.99127e-05	0.0000000E+000	0.000000000000000E+000	1.17353e-06
2	0	0	0	0	0	0	14.9	-0.299985	-0.300364	-0.00392734	-0.000109254	-0.000109254	41	-3.03483e-05	0	0.000000000000000E+000	9.117e-09	0.000000000000000E+000	7.17406e+06	14.9	3.03483e-05	0.000000000000000E+000	3.03483e-05	0.0000000E+000	0.000000000000000E+000	1.17963e-06
2	0	0	0	0	0	0	15.3	-0.299985	-0.300383	-0.00387277	-0.000110799	-0.000110799	41	-3.07774e-05	0	0.000000000000000E+000	9.24592e-09	0.000000000000000E+000	2.85983e+07	15.3	3.07774e-05	0.000000000000000E+000	3.07774e-05	0.0000000E+000	0.000000000000000E+000	1.16331e-06
2	0	0	0	0	0	0	15.7	-0.299985	-0.300414	-0.00387086	-0.000112334	-0.000112334	41	-3.1204e-05	0	0.000000000000000E+000	9.37407e-09	0.000000000000000E+000	3.26347e+06	15.7	3.1204e-05	0.000000000000000E+000	3.1204e-05	0.0000000E+000	0.000000000000000E+000	1.16286e-06
2	0	0	0	0	0	0	16.1	-0.299985	-0.300433	-0.00373983	-0.000113855	-0.000113855	41	-3.16263e-05	0	0.000000000000000E+000	9.50093e-09	0.000000000000000E+000	2.12595e+06	16.1	3.16263e-05	0.000000000000000E+000	3.16263e-05	0.0000000E+000	0.000000000000000E+000	1.12357e-06
2	0	0	0	0	0	0	16.5	-0.299985	-0.300433	-0.0037752	-0.000115363	-0.000115363	41	-3.20453e-05	0	0.000000000000000E+000	9.62682e-09	0.000000000000000E+000	2.15531e+06	16.5	3.20453e-05	0.000000000000000E+000	3.20453e-05	0.0000000E+000	0.000000000000000E+000	1.13419e-06
2	0	0	0	0	0	0	16.9	-0.299985	-0.300414	-0.00371283	-0.000116862	-0.000116862	41	-3.24617e-05	0	0.000000000000000E+000	9.75191e-09	0.000000000000000E+000	3.39502e+06	16.9	3.24617e-05	0.000000000000000E+000	3.24617e-05	0.0000000E+000	0.000000000000000E+000	1.11538e-06
2	0	0	0	0	0	0	17.3	-0.299985	-0.300383	-0.00371713	-0.000118358	-0.000118358	41	-3.28772e-05	0	0.000000000000000E+000	9.87672e-09	0.000000000000000E+000	3.10268e+07	17.3	3.28772e-05	0.000000000000000E+000	3.28772e-05	0.0000000E+000	0.000000000000000E+000	1.11656e-06
2	0	0	0	0	0	0	17.7	-0.299985	-0.300444	-0.00364486	-0.000119836	-0.000119836	41	-3.32879e-05	0	0.000000000000000E+000	1.00001e-08	0.000000000000000E+000	1.84282e+06	17.7	3.32879e-05	0.000000000000000E+000	3.32879e-05	0.0000000E+000	0.000000000000000E+000	1.09508e-06
2	0	0	0	0	0	0	18.1	-0.299985	-0.300421	-0.00365258	-0.000121293	-0.000121293	41	-3.36926e-05	0	0.000000000000000E+000	1.01217e-08	0.000000000000000E+000	2.88034e+06	18.1	3.36926e-05	0.000000000000000E+000	3.36926e-05	0.0000000E+000	0.000000000000000E+000	1.09731e-06
2	0	0	0	0	0	0	18.5	-0.299985	-0.300475	-0.00359753	-0.000122738	-0.000122738	41	-3.40938e-05	0	0.000000000000000E+000	1.02422e-08	0.000000000000000E+000	1.28419e+06	18.5	3.40938e-05	0.000000000000000E+000	3.40938e-05	0.0000000E+000	0.000000000000000E+000	1.08097e-06
2	0	0	0	0	0	0	18.9	-0.299985	-0.300379	-0.00358266	-0.000124167	-0.000124167	41	-3.44908e-05	0	0.000000000000000E+000	1.03615e-08	0.000000000000000E+000	0.000000000000000E+000	18.9	3.44908e-05	0.000000000000000E+000	3.44908e-05	0.0000000E+000	0.000000000000000E+000	1.07616e-06
2	0	0	0	0	0	0	19.3	-0.299985	-0.300467	-0.00353332	-0.000125582	-0.000125582	41	-3.48839e-05	0	0.000000000000000E+000	1.04796e-08	0.000000000000000E+000	1.42794e+06	19.3	3.48839e-05	0.000000000000000E+000	3.48839e-05	0.0000000E+000	0.000000000000000E+000	1.06165e-06
2	0	0	0	0	0	0	19.7	-0.299985	-0.300348	-0.00350302	-0.000126993	-0.000126993	41	-3.52758e-05	0	0.000000000000000E+000	1.05973e-08	0.000000000000000E+000	4.14915e+06	19.7	3.52758e-05	0.000000000000000E+000	3.52758e-05	0.0000000E+000	0.000000000000000E+000	1.05213e-06
2	0	0	0	0	0	0	20.1	-0.299985	-0.300379	-0.00352465	-0.000128399	-0.000128399	41	-3.56665e-05	0	0.000000000000000E+000	1.07146e-08	0.000000000000000E+000	0.000000000000000E+000	20.1	3.56665e-05	0.000000000000000E+000	3.56665e-05	0.0000000E+000	0.000000000000000E+000	1.05873e-06
2	0	0	0	0	0	0	20.5	-0.299985	-0.300364	-0.00345615	-0.000129789	-0.000129789	41	-3.60524e-05	0	0.000000000000000E+000	1.08306e-08	0.000000000000000E+000	8.48925e+06	20.5	3.60524e-05	0.000000000000000E+000	3.60524e-05	0.0000000E+000	0.000000000000000E+000	1.0381e-06
2	0	0	0	0	0	0	20.9	-0.299985	-0.300444	-0.00348832	-0.000131179	-0.000131179	41	-3.64387e-05	0	0.000000000000000E+000	1.09466e-08	0.000000000000000E+000	2.01726e+06	20.9	3.64387e-05	0.000000000000000E+000	3.64387e-05	0.0000000E+000	0.000000000000000E+000	1.04805e-06
2	0	0	0	0	0	0	21.3	-0.299985	-0.300391	-0.00345493	-0.000132564	-0.000132564	41	-3.68233e-05	0	0.000000000000000E+000	1.10622e-08	0.000000000000000E+000	1.15236e+07	21.3	3.68233e-05	0.000000000000000E+000	3.68233e-05	0.0000000E+000	0.000000000000000E+000	1.03783e-06
2	0	0	0	0	0	0	21.7	-0.299985	-0.300371	-0.00342774	-0.000133943	-0.000133943	41	-3.72065e-05	0	0.000000000000000E+000	1.11773e-08	0.000000000000000E+000	1.75562e+07	21.7	3.72065e-05	0.000000000000000E+000	3.72065e-05	0.0000000E+000	0.000000000000000E+000	1.02959e-06
2	0	0	0	0	0	0	22.1	-0.299985	-0.300479	-0.00337621	-0.00013531	-0.00013531	41	-3.7586e-05	0	0.000000000000000E+000	1.12913e-08	0.000000000000000E+000	1.36057e+06	22.1	3.7586e-05	0.000000000000000E+000	3.7586e-05	0.0000000E+000	0.000000000000000E+000	1.01448e-06
2	0	0	0	0	0	0	22.5	-0.299985	-0.300425	-0.00339733	-0.000136672	-0.000136672	41	-3.79644e-05	0	0.000000000000000E+000	1.1405e-08	0.000000000000000E+000	2.97595e+06	22.5	3.79644e-05	0.000000000000000E+000	3.79644e-05	0.0000000E+000	0.000000000000000E+000	1.02064e-06
2	0	0	0	0	0	0	22.9	-0.299985	-0.300406	-0.00335717	-0.000138016	-0.000138016	41	-3.83379e-05	0	0.000000000000000E+000	1.15172e-08	0.000000000000000E+000	5.15135e+06	22.9	3.83379e-05	0.000000000000000E+000	3.83379e-05	0.0000000E+000	0.000000000000000E+000	1.00851e-06
2	0	0	0	0	0	0	23.3	-0.299985	-0.300379	-0.0033357	-0.000139368	-0.000139368	41	-3.87133e-05	0	0.000000000000000E+000	1.16299e-08	0.000000000000000E+000	0.000000000000000E+000	23.3	3.87133e-05	0.000000000000000E+000	3.87133e-05	0.0000000E+000	0.000000000000000E+000	1.00197e-06
2	0	0	0	0	0	0	23.7	-0.299985	-0.300398	-0.00332172	-0.000140698	-0.000140698	41	-3.90828e-05	0	0.000000000000000E+000	1.17409e-08	0.000000000000000E+000	7.33082e+06	23.7	3.90828e-05	0.000000000000000E+000	3.90828e-05	0.0000000E+000	0.000000000000000E+000	9.9784e-07
2	0	0	0	0	0	0	24.1	-0.299985	-0.300456	-0.00331526	-0.000142026	-0.000142026	41	-3.94517e-05	0	0.000000000000000E+000	1.18518e-08	0.000000000000000E+000	1.85793e+06	24.1	3.94517e-05	0.000000000000000E+000	3.94517e-05	0.0000000E+000	0.000000000000000E+000	9.96088e-07
2	0	0	0	0	0	0	24.5	-0.299985	-0.300387	-0.00331036	-0.000143349	-0.000143349	41	-3.98191e-05	0	0.000000000000000E+000	1.19621e-08	0.000000000000000E+000	1.86434e+07	24.5	3.98191e-05	0.000000000000000E+000	3.98191e-05	0.0000000E+000	0.000000000000000E+000	9.94387e-07
2	0	0	0	0	0	0	24.9	-0.299985	-0.300417	-0.00328859	-0.000144667	-0.000144667	41	-4.01854e-05	0	0.000000000000000E+000	1.20722e-08	0.000000000000000E+000	3.7835e+06	24.9	4.01854e-05	0.000000000000000E+000	4.01854e-05	0.0000000E+000	0.000000000000000E+000	9.8795e-07
2	0	0	0	0	0	0	25.3	-0.299985	-0.300452	-0.00325642	-0.000145976	-0.000145976	41	-4.0549e-05	0	0.000000000000000E+000	1.21814e-08	0.000000000000000E+000	2.00909e+06	25.3	4.0549e-05	0.000000000000000E+000	4.0549e-05	0.0000000E+000	0.000000000000000E+000	9.78398e-07
2	0	0	0	0	0	0	25.7	-0.299985	-0.300402	-0.00326819	-0.000147281	-0.000147281	41	-4.09114e-05	0	0.000000000000000E+000	1.22903e-08	0.000000000000000E+000	6.40146e+06	25.7	4.09114e-05	0.000000000000000E+000	4.09114e-05	0.0000000E+000	0.000000000000000E+000	9.8177e-07
2	0	0	0	0	0	0	26.1	-0.299985	-0.300402	-0.00323455	-0.000148581	-0.000148581	41	-4.12725e-05	0	0.000000000000000E+000	1.23988e-08	0.000000000000000E+000	6.48316e+06	26.1	4.12725e-05	0.000000000000000E+000	4.12725e-05	0.0000000E+000	0.000000000000000E+000	9.71666e-07
2	0	0	0	0	0	0	26.5	-0.299985	-0.30044	-0.00323711	-0.000149868	-0.000149868	41	-4.16299e-05	0	0.000000000000000E+000	1.25061e-08	0.000000000000000E+000	2.45064e+06	26.5	4.16299e-05	0.000000000000000E+000	4.16299e-05	0.0000000E+000	0.000000000000000E+000	9.72558e-07
2	0	0	0	0	0	0	26.9	-0.299985	-0.30041	-0.00321367	-0.000151158	-0.000151158	41	-4.19884e-05	0	0.000000000000000E+000	1.26138e-08	0.000000000000000E+000	4.93868e+06	26.9	4.19884e-05	0.000000000000000E+000	4.19884e-05	0.0000000E+000	0.000000000000000E+000	9.65417e-07
2	0	0	0	0	0	0	27.3	-0.299985	-0.300391	-0.00318616	-0.000152435	-0.000152435	41	-4.2343e-05	0	0.000000000000000E+000	1.27203e-08	0.000000000000000E+000	1.32509e+07	27.3	4.2343e-05	0.000000000000000E+000	4.2343e-05	0.0000000E+000	0.000000000000000E+000	9.57092e-07
2	0	0	0	0	0	0	27.7	-0.299985	-0.300414	-0.00322006	-0.000153719	-0.000153719	41	-4.26996e-05	0	0.000000000000000E+000	1.28275e-08	0.000000000000000E+000	4.46575e+06	27.7	4.26996e-05	0.000000000000000E+000	4.26996e-05	0.0000000E+000	0.000000000000000E+000	9.67351e-07
2	0	0	0	0	0	0	28.1	-0.299985	-0.300402	-0.00319745	-0.000154995	-0.000154995	41	-4.30541e-05	0	0.000000000000000E+000	1.2934e-08	0.000000000000000E+000	6.74547e+06	28.1	4.30541e-05	0.000000000000000E+000	4.30541e-05	0.0000000E+000	0.000000000000000E+000	9.60521e-07
2	0	0	0	0	0	0	28.5	-0.299985	-0.300394	-0.00319819	-0.000156269	-0.000156269	41	-4.3408e-05	0	0.000000000000000E+000	1.30403e-08	0.000000000000000E+000	1.02213e+07	28.5	4.3408e-05	0.000000000000000E+000	4.3408e-05	0.0000000E+000	0.000000000000000E+000	9.60718e-07
2	0	0	0	0	0	0	28.9	-0.299985	-0.300379	-0.00311644	-0.000157526	-0.000157526	41	-4.37572e-05	0	0.000000000000000E+000	1.31452e-08	0.000000000000000E+000	0.000000000000000E+000	28.9	4.37572e-05	0.000000000000000E+000	4.37572e-05	0.0000000E+000	0.000000000000000E+000	9.36114e-07
2	0	0	0	0	0	0	29.3	-0.299985	-0.300368	-0.0031437	-0.000158786	-0.000158786	41	-4.41072e-05	0	0.000000000000000E+000	1.32503e-08	0.000000000000000E+000	1.39112e+07	29.3	4.41072e-05	0.000000000000000E+000	4.41072e-05	0.0000000E+000	0.000000000000000E+000	9.44267e-07
2	0	0	0	0	0	0	29.7	-0.299985	-0.30044	-0.00313997	-0.000160043	-0.000160043	41	-4.44563e-05	0	0.000000000000000E+000	1.33552e-08	0.000000000000000E+000	2.61448e+06	29.7	4.44563e-05	0.000000000000000E+000	4.44563e-05	0.0000000E+000	0.000000000000000E+000	9.43373e-07
2	0	0	0	0	0	0	30.1	-0.299985	-0.300383	-0.00314045	-0.000161295	-0.000161295	41	-4.48041e-05	0	0.000000000000000E+000	1.34597e-08	0.000000000000000E+000	4.1632e+07	30.1	4.48041e-05	0.000000000000000E+000	4.48041e-05	0.0000000E+000	0.000000000000000E+000	9.43339e-07
2	0	0	0	0	0	0	30.5	-0.299985	-0.300437	-0.00311821	-0.000162545	-0.000162545	41	-4.51515e-05	0	0.000000000000000E+000	1.3564e-08	0.000000000000000E+000	2.83037e+06	30.5	4.51515e-05	0.000000000000000E+000	4.51515e-05	0.0000000E+000	0.000000000000000E+000	9.36824e-07
2	0	0	0	0	0	0	30.9	-0.299985	-0.300406	-0.00312045	-0.000163792	-0.000163792	41	-4.54977e-05	0	0.000000000000000E+000	1.36681e-08	0.000000000000000E+000	6.1134e+06	30.9	4.54977e-05	0.000000000000000E+000	4.54977e-05	0.0000000E+000	0.000000000000000E+000	9.37402e-07
2	0	0	0	0	0	0	31.3	-0.299985	-0.300398	-0.00313407	-0.000165036	-0.000165036	41	-4.58433e-05	0	0.000000000000000E+000	1.37719e-08	0.000000000000000E+000	8.59888e+06	31.3	4.58433e-05	0.000000000000000E+000	4.58433e-05	0.0000000E+000	0.000000000000000E+000	9.4147e-07
2	0	0	0	0	0	0	31.7	-0.299985	-0.300437	-0.00307048	-0.000166276	-0.000166276	41	-4.61877e-05	0	0.000000000000000E+000	1.38753e-08	0.000000000000000E+000	2.89532e+06	31.7	4.61877e-05	0.000000000000000E+000	4.61877e-05	0.0000000E+000	0.000000000000000E+000	9.22486e-07
2	0	0	0	0	0	0	32.1	-0.299985	-0.300463	-0.00310544	-0.000167509	-0.000167509	41	-4.65303e-05	0	0.000000000000000E+000	1.39783e-08	0.000000000000000E+000	1.99244e+06	32.1	4.65303e-05	0.000000000000000E+000	4.65303e-05	0.0000000E+000	0.000000000000000E+000	9.3307e-07
2	0	0	0	0	0	0	32.5	-0.299985	-0.30044	-0.00304857	-0.000168737	-0.000168737	41	-4.68713e-05	0	0.000000000000000E+000	1.40807e-08	0.000000000000000E+000	2.75516e+06	32.5	4.68713e-05	0.000000000000000E+000	4.68713e-05	0.0000000E+000	0.000000000000000E+000	9.15914e-07
2	0	0	0	0	0	0	32.9	-0.299985	-0.300414	-0.00306844	-0.000169963	-0.000169963	41	-4.72118e-05	0	0.000000000000000E+000	1.4183e-08	0.000000000000000E+000	4.93766e+06	32.9	4.72118e-05	0.000000000000000E+000	4.72118e-05	0.0000000E+000	0.000000000000000E+000	9.21802e-07
2	0	0	0	0	0	0	33.3	-0.299985	-0.300391	-0.00308434	-0.00017119	-0.00017119	41	-4.75529e-05	0	0.000000000000000E+000	1.42855e-08	0.000000000000000E+000	1.48813e+07	33.3	4.75529e-05	0.000000000000000E+000	4.75529e-05	0.0000000E+000	0.000000000000000E+000	9.26506e-07
2	0	0	0	0	0	0	33.7	-0.299985	-0.300436	-0.00305787	-0.000172412	-0.000172412	41	-4.78924e-05	0	0.000000000000000E+000	1.43874e-08	0.000000000000000E+000	3.00686e+06	33.7	4.78924e-05	0.000000000000000E+000	4.78924e-05	0.0000000E+000	0.000000000000000E+000	9.18695e-07
2	0	0	0	0	0	0	34.1	-0.299985	-0.300406	-0.00305401	-0.000173632	-0.000173632	41	-4.82312e-05	0	0.000000000000000E+000	1.44892e-08	0.000000000000000E+000	6.48069e+06	34.1	4.82312e-05	0.000000000000000E+000	4.82312e-05	0.0000000E+000	0.000000000000000E+000	9.17441e-07
2	0	0	0	0	0	0	34.5	-0.299985	-0.300417	-0.00302902	-0.000174848	-0.000174848	41	-4.8569e-05	0	0.000000000000000E+000	1.45907e-08	0.000000000000000E+000	4.57283e+06	34.5	4.8569e-05	0.000000000000000E+000	4.8569e-05	0.0000000E+000	0.000000000000000E+000	9.09969e-07
2	0	0	0	0	0	0	34.9	-0.299985	-0.300421	-0.00302854	-0.000176054	-0.000176054	41	-4.89038e-05	0	0.000000000000000E+000	1.46913e-08	0.000000000000000E+000	4.18963e+06	34.9	4.89038e-05	0.000000000000000E+000	4.89038e-05	0.0000000E+000	0.000000000000000E+000	9.09838e-07
2	0	0	0	0	0	0	35.3	-0.299985	-0.300444	-0.00301116	-0.000177256	-0.000177256	41	-4.92378e-05	0	0.000000000000000E+000	1.47916e-08	0.000000000000000E+000	2.72582e+06	35.3	4.92378e-05	0.000000000000000E+000	4.92378e-05	0.0000000E+000	0.000000000000000E+000	9.04684e-07
2	0	0	0	0	0	0	35.7	-0.299985	-0.300387	-0.00302178	-0.000178462	-0.000178462	41	-4.95727e-05	0	0.000000000000000E+000	1.48922e-08	0.000000000000000E+000	2.321e+07	35.7	4.95727e-05	0.000000000000000E+000	4.95727e-05	0.0000000E+000	0.000000000000000E+000	9.07702e-07
2	0	0	0	0	0	0	36.1	-0.299985	-0.300421	-0.00299152	-0.000179658	-0.000179658	41	-4.99051e-05	0	0.000000000000000E+000	1.49921e-08	0.000000000000000E+000	4.26634e+06	36.1	4.99051e-05	0.000000000000000E+000	4.99051e-05	0.0000000E+000	0.000000000000000E+000	8.98715e-07
2	0	0	0	0	0	0	36.5	-0.299985	-0.300398	-0.0029613	-0.000180859	-0.000180859	41	-5.02386e-05	0	0.000000000000000E+000	1.50923e-08	0.000000000000000E+000	9.46742e+06	36.5	5.02386e-05	0.000000000000000E+000	5.02386e-05	0.0000000E+000	0.000000000000000E+000	8.89569e-07
2	0	0	0	0	0	0	36.9	-0.299985	-0.300406	-0.00298737	-0.000182052	-0.000182052	41	-5.05701e-05	0	0.000000000000000E+000	1.51919e-08	0.000000000000000E+000	6.79496e+06	36.9	5.05701e-05	0.000000000000000E+000	5.05701e-05	0.0000000E+000	0.000000000000000E+000	8.97424e-07
2	0	0	0	0	0	0	37.3	-0.299985	-0.300437	-0.00296036	-0.000183241	-0.000183241	41	-5.09002e-05	0	0.000000000000000E+000	1.5291e-08	0.000000000000000E+000	3.19073e+06	37.3	5.09002e-05	0.000000000000000E+000	5.09002e-05	0.0000000E+000	0.000000000000000E+000	8.89399e-07
2	0	0	0	0	0	0	37.7	-0.299985	-0.30041	-0.0029405	-0.000184427	-0.000184427	41	-5.12298e-05	0	0.000000000000000E+000	1.539e-08	0.000000000000000E+000	6.02566e+06	37.7	5.12298e-05	0.000000000000000E+000	5.12298e-05	0.0000000E+000	0.000000000000000E+000	8.83354e-07
2	0	0	0	0	0	0	38.1	-0.299985	-0.300402	-0.00293745	-0.000185604	-0.000185604	41	-5.15566e-05	0	0.000000000000000E+000	1.54882e-08	0.000000000000000E+000	8.06713e+06	38.1	5.15566e-05	0.000000000000000E+000	5.15566e-05	0.0000000E+000	0.000000000000000E+000	8.82416e-07
2	0	0	0	0	0	0	38.5	-0.299985	-0.300421	-0.00292551	-0.000186779	-0.000186779	41	-5.18831e-05	0	0.000000000000000E+000	1.55863e-08	0.000000000000000E+000	4.43543e+06	38.5	5.18831e-05	0.000000000000000E+000	5.18831e-05	0.0000000E+000	0.000000000000000E+000	8.78884e-07
2	0	0	0	0	0	0	38.9	-0.299985	-0.300394	-0.0029099	-0.000187954	-0.000187954	41	-5.22094e-05	0	0.000000000000000E+000	1.56843e-08	0.000000000000000E+000	1.22698e+07	38.9	5.22094e-05	0.000000000000000E+000	5.22094e-05	0.0000000E+000	0.000000000000000E+000	8.74119e-07
2	0	0	0	0	0	0	39.3	-0.299985	-0.300406	-0.00293642	-0.000189131	-0.000189131	41	-5.25363e-05	0	0.000000000000000E+000	1.57825e-08	0.000000000000000E+000	7.05915e+06	39.3	5.25363e-05	0.000000000000000E+000	5.25363e-05	0.0000000E+000	0.000000000000000E+000	8.82118e-07
2	0	0	0	0	0	0	39.7	-0.299985	-0.300406	-0.0029278	-0.000190297	-0.000190297	41	-5.28604e-05	0	0.000000000000000E+000	1.58799e-08	0.000000000000000E+000	7.10269e+06	39.7	5.28604e-05	0.000000000000000E+000	5.28604e-05	0.0000000E+000	0.000000000000000E+000	8.79528e-07
2	0	0	0	0	0	0	40.1	-0.299985	-0.30041	-0.00290629	-0.000191466	-0.000191466	41	-5.31851e-05	0	0.000000000000000E+000	1.59774e-08	0.000000000000000E+000	6.25564e+06	40.1	5.31851e-05	0.000000000000000E+000	5.31851e-05	0.0000000E+000	0.000000000000000E+000	8.73077e-07
2	0	0	0	0	0	0	40.5	-0.299985	-0.300417	-0.00288168	-0.000192631	-0.000192631	41	-5.35086e-05	0	0.000000000000000E+000	1.60746e-08	0.000000000000000E+000	5.0379e+06	40.5	5.35086e-05	0.000000000000000E+000	5.35086e-05	0.0000000E+000	0.000000000000000E+000	8.65705e-07
2	0	0	0	0	0	0	40.9	-0.299985	-0.300429	-0.0028913	-0.000193792	-0.000193792	41	-5.38311e-05	0	0.000000000000000E+000	1.61715e-08	0.000000000000000E+000	3.89609e+06	40.9	5.38311e-05	0.000000000000000E+000	5.38311e-05	0.0000000E+000	0.000000000000000E+000	8.68629e-07
2	0	0	0	0	0	0	41.3	-0.299985	-0.300475	-0.0028867	-0.000194946	-0.000194946	41	-5.41518e-05	0	0.000000000000000E+000	1.62678e-08	0.000000000000000E+000	2.0397e+06	41.3	5.41518e-05	0.000000000000000E+000	5.41518e-05	0.0000000E+000	0.000000000000000E+000	8.6738e-07
2	0	0	0	0	0	0	41.7	-0.299985	-0.30044	-0.00289916	-0.000196109	-0.000196109	41	-5.44748e-05	0	0.000000000000000E+000	1.63649e-08	0.000000000000000E+000	3.20211e+06	41.7	5.44748e-05	0.000000000000000E+000	5.44748e-05	0.0000000E+000	0.000000000000000E+000	8.71023e-07
2	0	0	0	0	0	0	42.1	-0.299985	-0.300459	-0.00284333	-0.000197259	-0.000197259	41	-5.47943e-05	0	0.000000000000000E+000	1.64609e-08	0.000000000000000E+000	2.45783e+06	42.1	5.47943e-05	0.000000000000000E+000	5.47943e-05	0.0000000E+000	0.000000000000000E+000	8.54305e-07
2	0	0	0	0	0	0	42.5	-0.299985	-0.300387	-0.00287549	-0.000198407	-0.000198407	41	-5.5113e-05	0	0.000000000000000E+000	1.65566e-08	0.000000000000000E+000	2.5804e+07	42.5	5.5113e-05	0.000000000000000E+000	5.5113e-05	0.0000000E+000	0.000000000000000E+000	8.63759e-07
2	0	0	0	0	0	0	42.9	-0.299985	-0.30044	-0.00287155	-0.000199559	-0.000199559	41	-5.54332e-05	0	0.000000000000000E+000	1.66528e-08	0.000000000000000E+000	3.26321e+06	42.9	5.54332e-05	0.000000000000000E+000	5.54332e-05	0.0000000E+000	0.000000000000000E+000	8.62728e-07
2	0	0	0	0	0	0	43.3	-0.299985	-0.300456	-0.00288007	-0.000200717	-0.000200717	41	-5.57546e-05	0	0.000000000000000E+000	1.67494e-08	0.000000000000000E+000	2.6257e+06	43.3	5.57546e-05	0.000000000000000E+000	5.57546e-05	0.0000000E+000	0.000000000000000E+000	8.65333e-07
2	0	0	0	0	0	0	43.7	-0.299985	-0.30044	-0.0028717	-0.000201865	-0.000201865	41	-5.60736e-05	0	0.000000000000000E+000	1.68452e-08	0.000000000000000E+000	3.30091e+06	43.7	5.60736e-05	0.000000000000000E+000	5.60736e-05	0.0000000E+000	0.000000000000000E+000	8.62774e-07
2	0	0	0	0	0	0	44.1	-0.299985	-0.30044	-0.00286032	-0.000203009	-0.000203009	41	-5.63913e-05	0	0.000000000000000E+000	1.69407e-08	0.000000000000000E+000	3.31961e+06	44.1	5.63913e-05	0.000000000000000E+000	5.63913e-05	0.0000000E+000	0.000000000000000E+000	8.59354e-07
2	0	0	0	0	0	0	44.5	-0.299985	-0.300437	-0.00285832	-0.000204157	-0.000204157	41	-5.67104e-05	0	0.000000000000000E+000	1.70365e-08	0.000000000000000E+000	3.55495e+06	44.5	5.67104e-05	0.000000000000000E+000	5.67104e-05	0.0000000E+000	0.000000000000000E+000	8.58744e-07
2	0	0	0	0	0	0	44.9	-0.299985	-0.300444	-0.00284428	-0.000205303	-0.000205303	41	-5.70287e-05	0	0.000000000000000E+000	1.71321e-08	0.000000000000000E+000	3.15712e+06	44.9	5.70287e-05	0.000000000000000E+000	5.70287e-05	0.0000000E+000	0.000000000000000E+000	8.54547e-07
2	0	0	0	0	0	0	45.3	-0.299985	-0.300402	-0.00283847	-0.000206442	-0.000206442	41	-5.73451e-05	0	0.000000000000000E+000	1.72272e-08	0.000000000000000E+000	9.00787e+06	45.3	5.73451e-05	0.000000000000000E+000	5.73451e-05	0.0000000E+000	0.000000000000000E+000	8.52682e-07
2	0	0	0	0	0	0	45.7	-0.299985	-0.30041	-0.00287244	-0.000207578	-0.000207578	41	-5.76607e-05	0	0.000000000000000E+000	1.7322e-08	0.000000000000000E+000	6.78206e+06	45.7	5.76607e-05	0.000000000000000E+000	5.76607e-05	0.0000000E+000	0.000000000000000E+000	8.62908e-07
2	0	0	0	0	0	0	46.1	-0.299985	-0.30041	-0.00281128	-0.000208703	-0.000208703	41	-5.7973e-05	0	0.000000000000000E+000	1.74158e-08	0.000000000000000E+000	6.81879e+06	46.1	5.7973e-05	0.000000000000000E+000	5.7973e-05	0.0000000E+000	0.000000000000000E+000	8.44535e-07
2	0	0	0	0	0	0	46.5	-0.299985	-0.30044	-0.00287146	-0.000209846	-0.000209846	41	-5.82905e-05	0	0.000000000000000E+000	1.75112e-08	0.000000000000000E+000	3.43141e+06	46.5	5.82905e-05	0.000000000000000E+000	5.82905e-05	0.0000000E+000	0.000000000000000E+000	8.62702e-07
2	0	0	0	0	0	0	46.9	-0.299985	-0.300398	-0.00286016	-0.000210984	-0.000210984	41	-5.86067e-05	0	0.000000000000000E+000	1.76062e-08	0.000000000000000E+000	1.09929e+07	46.9	5.86067e-05	0.000000000000000E+000	5.86067e-05	0.0000000E+000	0.000000000000000E+000	8.59189e-07
2	0	0	0	0	0	0	47.3	-0.299985	-0.300398	-0.00282408	-0.000212114	-0.000212114	41	-5.89206e-05	0	0.000000000000000E+000	1.77005e-08	0.000000000000000E+000	1.10863e+07	47.3	5.89206e-05	0.000000000000000E+000	5.89206e-05	0.0000000E+000	0.000000000000000E+000	8.48348e-07
2	0	0	0	0	0	0	47.7	-0.299985	-0.300429	-0.00282727	-0.000213241	-0.000213241	41	-5.92337e-05	0	0.000000000000000E+000	1.77946e-08	0.000000000000000E+000	4.28712e+06	47.7	5.92337e-05	0.000000000000000E+000	5.92337e-05	0.0000000E+000	0.000000000000000E+000	8.49394e-07
2	0	0	0	0	0	0	48.1	-0.299985	-0.300433	-0.00279863	-0.000214366	-0.000214366	41	-5.9546e-05	0	0.000000000000000E+000	1.78884e-08	0.000000000000000E+000	4.00496e+06	48.1	5.9546e-05	0.000000000000000E+000	5.9546e-05	0.0000000E+000	0.000000000000000E+000	8.408e-07
2	0	0	0	0	0	0	48.5	-0.299985	-0.300486	-0.0027994	-0.000215491	-0.000215491	41	-5.98586e-05	0	0.000000000000000E+000	1.79823e-08	0.000000000000000E+000	2.01243e+06	48.5	5.98586e-05	0.000000000000000E+000	5.98586e-05	0.0000000E+000	0.000000000000000E+000	8.4118e-07
2	0	0	0	0	0	0	48.9	-0.299985	-0.300425	-0.0027732	-0.0002166	-0.0002166	41	-6.01668e-05	0	0.000000000000000E+000	1.80749e-08	0.000000000000000E+000	4.72555e+06	48.9	6.01668e-05	0.000000000000000E+000	6.01668e-05	0.0000000E+000	0.000000000000000E+000	8.33139e-07
2	0	0	0	0	0	0	49.3	-0.299985	-0.300379	-0.00278333	-0.000217711	-0.000217711	41	-6.04753e-05	0	0.000000000000000E+000	1.81676e-08	0.000000000000000E+000	0.000000000000000E+000	49.3	6.04753e-05	0.000000000000000E+000	6.04753e-05	0.0000000E+000	0.000000000000000E+000	8.36055e-07
2	0	0	0	0	0	0	49.7	-0.299985	-0.300402	-0.00277606	-0.000218821	-0.000218821	41	-6.07837e-05	0	0.000000000000000E+000	1.82602e-08	0.000000000000000E+000	9.51092e+06	49.7	6.07837e-05	0.000000000000000E+000	6.07837e-05	0.0000000E+000	0.000000000000000E+000	8.33933e-07
2	0	0	0	0	0	0	50.1	-0.299985	-0.300379	-0.00277561	-0.000219928	-0.000219928	41	-6.10912e-05	0	0.000000000000000E+000	1.83526e-08	0.000000000000000E+000	0.000000000000000E+000	50.1	6.10912e-05	0.000000000000000E+000	6.10912e-05	0.0000000E+000	0.000000000000000E+000	8.33734e-07
2	0	0	0	0	0	0	50.5	-0.299985	-0.300406	-0.00276759	-0.000221037	-0.000221037	41	-6.13993e-05	0	0.000000000000000E+000	1.84451e-08	0.000000000000000E+000	8.25004e+06	50.5	6.13993e-05	0.000000000000000E+000	6.13993e-05	0.0000000E+000	0.000000000000000E+000	8.31402e-07
2	0	0	0	0	0	0	50.9	-0.299985	-0.300444	-0.0027734	-0.000222148	-0.000222148	41	-6.17078e-05	0	0.000000000000000E+000	1.85378e-08	0.000000000000000E+000	3.41929e+06	50.9	6.17078e-05	0.000000000000000E+000	6.17078e-05	0.0000000E+000	0.000000000000000E+000	8.33252e-07
2	0	0	0	0	0	0	51.3	-0.299985	-0.300429	-0.00279246	-0.000223262	-0.000223262	41	-6.20171e-05	0	0.000000000000000E+000	1.86308e-08	0.000000000000000E+000	4.48857e+06	51.3	6.20171e-05	0.000000000000000E+000	6.20171e-05	0.0000000E+000	0.000000000000000E+000	8.38936e-07
2	0	0	0	0	0	0	51.7	-0.299985	-0.300417	-0.0027825	-0.000224372	-0.000224372	41	-6.23255e-05	0	0.000000000000000E+000	1.87234e-08	0.000000000000000E+000	5.85888e+06	51.7	6.23255e-05	0.000000000000000E+000	6.23255e-05	0.0000000E+000	0.000000000000000E+000	8.3591e-07
2	0	0	0	0	0	0	52.1	-0.299985	-0.300436	-0.00275424	-0.000225478	-0.000225478	41	-6.26328e-05	0	0.000000000000000E+000	1.88157e-08	0.000000000000000E+000	3.93232e+06	52.1	6.26328e-05	0.000000000000000E+000	6.26328e-05	0.0000000E+000	0.000000000000000E+000	8.27475e-07
2	0	0	0	0	0	0	52.5	-0.299985	-0.300417	-0.00277557	-0.000226591	-0.000226591	41	-6.29418e-05	0	0.000000000000000E+000	1.89086e-08	0.000000000000000E+000	5.92605e+06	52.5	6.29418e-05	0.000000000000000E+000	6.29418e-05	0.0000000E+000	0.000000000000000E+000	8.33831e-07
2	0	0	0	0	0	0	52.9	-0.299985	-0.300379	-0.00278182	-0.000227695	-0.000227695	41	-6.32487e-05	0	0.000000000000000E+000	1.90007e-08	0.000000000000000E+000	0.000000000000000E+000	52.9	6.32487e-05	0.000000000000000E+000	6.32487e-05	0.0000000E+000	0.000000000000000E+000	8.35601e-07
2	0	0	0	0	0	0	53.3	-0.299985	-0.300456	-0.0027492	-0.0002288	-0.0002288	41	-6.35557e-05	0	0.000000000000000E+000	1.9093e-08	0.000000000000000E+000	2.99192e+06	53.3	6.35557e-05	0.000000000000000E+000	6.35557e-05	0.0000000E+000	0.000000000000000E+000	8.26012e-07
2	0	0	0	0	0	0	53.7	-0.299985	-0.300429	-0.0027477	-0.000229904	-0.000229904	41	-6.38624e-05	0	0.000000000000000E+000	1.91851e-08	0.000000000000000E+000	4.62212e+06	53.7	6.38624e-05	0.000000000000000E+000	6.38624e-05	0.0000000E+000	0.000000000000000E+000	8.25487e-07
2	0	0	0	0	0	0	54.1	-0.299985	-0.300402	-0.00270869	-0.000230991	-0.000230991	41	-6.41641e-05	0	0.000000000000000E+000	1.92757e-08	0.000000000000000E+000	1.00398e+07	54.1	6.41641e-05	0.000000000000000E+000	6.41641e-05	0.0000000E+000	0.000000000000000E+000	8.13697e-07
2	0	0	0	0	0	0	54.5	-0.299985	-0.300436	-0.00273787	-0.000232075	-0.000232075	41	-6.44652e-05	0	0.000000000000000E+000	1.93662e-08	0.000000000000000E+000	4.04736e+06	54.5	6.44652e-05	0.000000000000000E+000	6.44652e-05	0.0000000E+000	0.000000000000000E+000	8.22556e-07
2	0	0	0	0	0	0	54.9	-0.299985	-0.30044	-0.00274424	-0.000233165	-0.000233165	41	-6.4768e-05	0	0.000000000000000E+000	1.94572e-08	0.000000000000000E+000	3.80901e+06	54.9	6.4768e-05	0.000000000000000E+000	6.4768e-05	0.0000000E+000	0.000000000000000E+000	8.24482e-07
2	0	0	0	0	0	0	55.3	-0.299985	-0.30041	-0.0027532	-0.00023426	-0.00023426	41	-6.50723e-05	0	0.000000000000000E+000	1.95486e-08	0.000000000000000E+000	7.65382e+06	55.3	6.50723e-05	0.000000000000000E+000	6.50723e-05	0.0000000E+000	0.000000000000000E+000	8.27087e-07
2	0	0	0	0	0	0	55.7	-0.299985	-0.300421	-0.00272098	-0.000235359	-0.000235359	41	-6.53776e-05	0	0.000000000000000E+000	1.96403e-08	0.000000000000000E+000	5.60096e+06	55.7	6.53776e-05	0.000000000000000E+000	6.53776e-05	0.0000000E+000	0.000000000000000E+000	8.17439e-07
2	0	0	0	0	0	0	56.1	-0.299985	-0.300394	-0.00273695	-0.00023645	-0.00023645	41	-6.56805e-05	0	0.000000000000000E+000	1.97313e-08	0.000000000000000E+000	1.54658e+07	56.1	6.56805e-05	0.000000000000000E+000	6.56805e-05	0.0000000E+000	0.000000000000000E+000	8.22165e-07
2	0	0	0	0	0	0	56.5	-0.299985	-0.300364	-0.00273012	-0.000237539	-0.000237539	41	-6.5983e-05	0	0.000000000000000E+000	1.98222e-08	0.000000000000000E+000	1.55068e+07	56.5	6.5983e-05	0.000000000000000E+000	6.5983e-05	0.0000000E+000	0.000000000000000E+000	8.20029e-07
2	0	0	0	0	0	0	56.9	-0.299985	-0.30041	-0.0027238	-0.000238631	-0.000238631	41	-6.62863e-05	0	0.000000000000000E+000	1.99133e-08	0.000000000000000E+000	7.7966e+06	56.9	6.62863e-05	0.000000000000000E+000	6.62863e-05	0.0000000E+000	0.000000000000000E+000	8.18256e-07
2	0	0	0	0	0	0	57.3	-0.299985	-0.300391	-0.00272328	-0.00023972	-0.00023972	41	-6.65888e-05	0	0.000000000000000E+000	2.00042e-08	0.000000000000000E+000	2.08385e+07	57.3	6.65888e-05	0.000000000000000E+000	6.65888e-05	0.0000000E+000	0.000000000000000E+000	8.18047e-07
2	0	0	0	0	0	0	57.7	-0.299985	-0.300402	-0.00271692	-0.000240803	-0.000240803	41	-6.68896e-05	0	0.000000000000000E+000	2.00945e-08	0.000000000000000E+000	1.05071e+07	57.7	6.68896e-05	0.000000000000000E+000	6.68896e-05	0.0000000E+000	0.000000000000000E+000	8.16168e-07
2	0	0	0	0	0	0	58.1	-0.299985	-0.300417	-0.00269221	-0.000241887	-0.000241887	41	-6.71909e-05	0	0.000000000000000E+000	2.0185e-08	0.000000000000000E+000	6.3261e+06	58.1	6.71909e-05	0.000000000000000E+000	6.71909e-05	0.0000000E+000	0.000000000000000E+000	8.08786e-07
2	0	0	0	0	0	0	58.5	-0.299985	-0.300383	-0.00267397	-0.000242965	-0.000242965	41	-6.74904e-05	0	0.000000000000000E+000	2.0275e-08	0.000000000000000E+000	6.27121e+07	58.5	6.74904e-05	0.000000000000000E+000	6.74904e-05	0.0000000E+000	0.000000000000000E+000	8.03214e-07
2	0	0	0	0	0	0	58.9	-0.299985	-0.300406	-0.00270824	-0.000244048	-0.000244048	41	-6.77911e-05	0	0.000000000000000E+000	2.03653e-08	0.000000000000000E+000	9.10889e+06	58.9	6.77911e-05	0.000000000000000E+000	6.77911e-05	0.0000000E+000	0.000000000000000E+000	8.13572e-07
2	0	0	0	0	0	0	59.3	-0.299985	-0.300383	-0.00272123	-0.000245134	-0.000245134	41	-6.80929e-05	0	0.000000000000000E+000	2.0456e-08	0.000000000000000E+000	6.32719e+07	59.3	6.80929e-05	0.000000000000000E+000	6.80929e-05	0.0000000E+000	0.000000000000000E+000	8.17412e-07
2	0	0	0	0	0	0	59.7	-0.299985	-0.300371	-0.00269439	-0.000246217	-0.000246217	41	-6.83937e-05	0	0.000000000000000E+000	2.05464e-08	0.000000000000000E+000	3.22722e+07	59.7	6.83937e-05	0.000000000000000E+000	6.83937e-05	0.0000000E+000	0.000000000000000E+000	8.09317e-07
2	0	0	0	0	0	0	60.1	-0.299985	-0.300379	-0.00270812	-0.00024729	-0.00024729	41	-6.86916e-05	0	0.000000000000000E+000	2.06358e-08	0.000000000000000E+000	0.000000000000000E+000	60.1	6.86916e-05	0.000000000000000E+000	6.86916e-05	0.0000000E+000	0.000000000000000E+000	8.13462e-07
2	0	0	0	0	0	0	60.5	-0.299985	-0.300421	-0.00269468	-0.000248364	-0.000248364	41	-6.89899e-05	0	0.000000000000000E+000	2.07255e-08	0.000000000000000E+000	5.89788e+06	60.5	6.89899e-05	0.000000000000000E+000	6.89899e-05	0.0000000E+000	0.000000000000000E+000	8.0954e-07
2	0	0	0	0	0	0	60.9	-0.299985	-0.300402	-0.00272233	-0.000249446	-0.000249446	41	-6.92905e-05	0	0.000000000000000E+000	2.08157e-08	0.000000000000000E+000	1.0856e+07	60.9	6.92905e-05	0.000000000000000E+000	6.92905e-05	0.0000000E+000	0.000000000000000E+000	8.17794e-07
2	0	0	0	0	0	0	61.3	-0.299985	-0.300364	-0.00267755	-0.000250523	-0.000250523	41	-6.95898e-05	0	0.000000000000000E+000	2.09057e-08	0.000000000000000E+000	1.64504e+07	61.3	6.95898e-05	0.000000000000000E+000	6.95898e-05	0.0000000E+000	0.000000000000000E+000	8.04239e-07
2	0	0	0	0	0	0	61.7	-0.299985	-0.300398	-0.00268737	-0.000251595	-0.000251595	41	-6.98875e-05	0	0.000000000000000E+000	2.09951e-08	0.000000000000000E+000	1.31702e+07	61.7	6.98875e-05	0.000000000000000E+000	6.98875e-05	0.0000000E+000	0.000000000000000E+000	8.07281e-07
2	0	0	0	0	0	0	62.1	-0.299985	-0.300368	-0.00265076	-0.000252664	-0.000252664	41	-7.01843e-05	0	0.000000000000000E+000	2.10842e-08	0.000000000000000E+000	2.21357e+07	62.1	7.01843e-05	0.000000000000000E+000	7.01843e-05	0.0000000E+000	0.000000000000000E+000	7.96204e-07
2	0	0	0	0	0	0	62.234	-0.299985	-0.300383	-0.0026681	-0.00025302	-0.00025302	41	-7.02834e-05	0	0.000000000000000E+000	2.1114e-08	0.000000000000000E+000	6.63277e+07	62.234	7.02834e-05	0.000000000000000E+000	7.02834e-05	0.0000000E+000	0.000000000000000E+000	8.01452e-07