File: Fig 3/Fig 3_RRDE-np-Fe2O3_5mvs_ring.mpt
mode	ox/red	error	control changes	counter inc.	time/s	control/V	Ewe/V	<I>/mA	cycle number	(Q-Qo)/C	I Range	step time/s	P/W
2	1	1	1	0	0.000000000000000E+000	-0.300043	-0.300324	0.00252775	1	0.0000000E+000	39	0.000000000000000E+000	-7.59143e-07
2	1	0	1	0	0.11	-0.300593	-0.30088	0.00376744	1	3.57849e-07	39	0.000000000000000E+000	-1.13355e-06
2	1	0	1	0	0.31	-0.301592	-0.301894	0.0037128	1	1.05734e-06	39	0.2	-1.12087e-06
2	1	0	1	0	0.51	-0.302592	-0.30289	0.0038005	1	1.75661e-06	39	0.4	-1.15113e-06
2	1	0	1	0	0.71	-0.303592	-0.303867	0.00367726	1	2.4553e-06	39	0.6	-1.1174e-06
2	1	0	1	0	0.91	-0.304592	-0.30489	0.00377069	1	3.14985e-06	39	0.8	-1.14965e-06
2	1	0	1	0	1.1099	-0.305592	-0.305859	0.00369303	1	3.85204e-06	39	0.9999	-1.12955e-06
2	1	0	0	0	1.3098	-0.306592	-0.306901	0.00352277	1	4.5282e-06	39	1.1998	-1.08114e-06
2	1	0	0	0	1.5098	-0.307591	-0.30789	0.003585	1	5.18818e-06	39	1.3998	-1.10379e-06
2	1	0	0	0	1.7098	-0.308591	-0.308872	0.00341923	1	5.83334e-06	39	1.5998	-1.0561e-06
2	1	0	0	0	1.9098	-0.309591	-0.309874	0.00336253	1	6.46909e-06	39	1.7998	-1.04196e-06
2	1	0	0	0	2.1098	-0.310591	-0.310896	0.0033255	1	7.09282e-06	39	1.9998	-1.03389e-06
2	1	0	1	0	2.3097	-0.311591	-0.311878	0.00321842	1	7.70777e-06	39	2.1997	-1.00375e-06
2	1	0	1	0	2.5096	-0.312591	-0.312885	0.00325781	1	8.31287e-06	39	2.3996	-1.01932e-06
2	1	0	1	0	2.7096	-0.31359	-0.313868	0.00322014	1	8.91182e-06	39	2.5996	-1.0107e-06
2	1	0	1	0	2.9096	-0.31459	-0.314881	0.00320575	1	9.50971e-06	39	2.7996	-1.00943e-06
2	1	0	1	0	3.1096	-0.31559	-0.315874	0.00309947	1	1.00934e-05	39	2.9996	-9.79041e-07
2	1	0	1	0	3.3095	-0.316589	-0.316853	0.00293124	1	1.06501e-05	39	3.1995	-9.28771e-07
2	1	0	0	0	3.5094	-0.31759	-0.317863	0.00301559	1	1.12002e-05	39	3.3994	-9.58545e-07
2	1	0	0	0	3.7094	-0.31859	-0.318864	0.00286901	1	1.17432e-05	39	3.5994	-9.14823e-07
2	1	0	0	0	3.9094	-0.319589	-0.319885	0.00289868	1	1.22781e-05	39	3.7994	-9.27244e-07
2	1	0	0	0	4.1094	-0.320589	-0.320881	0.00288527	1	1.28154e-05	39	3.9994	-9.25828e-07
2	1	0	0	0	4.3094	-0.321589	-0.321872	0.00289596	1	1.33464e-05	39	4.1994	-9.32129e-07
2	1	0	1	0	4.5093	-0.322588	-0.322869	0.0028646	1	1.38725e-05	39	4.3993	-9.2489e-07
2	1	0	1	0	4.7092	-0.323589	-0.323855	0.00270871	1	1.43804e-05	39	4.5992	-8.77229e-07
2	1	0	1	0	4.9092	-0.324588	-0.324852	0.00277911	1	1.48809e-05	39	4.7992	-9.02797e-07
2	1	0	1	0	5.1092	-0.325588	-0.325851	0.00261299	1	1.5372e-05	39	4.9992	-8.51444e-07
2	1	0	1	0	5.3092	-0.326588	-0.326859	0.00261586	1	1.58444e-05	39	5.1992	-8.55018e-07
2	1	0	1	0	5.5092	-0.327588	-0.327857	0.00252848	1	1.63055e-05	39	5.3992	-8.28981e-07
2	1	0	1	0	5.7091	-0.328588	-0.32887	0.00257636	1	1.67642e-05	39	5.5991	-8.47289e-07
2	1	0	0	0	5.909	-0.329588	-0.329859	0.00249934	1	1.72224e-05	39	5.799	-8.24431e-07
2	1	0	0	0	6.109	-0.330587	-0.330884	0.00247602	1	1.76726e-05	39	5.999	-8.19273e-07
2	1	0	0	0	6.309	-0.331587	-0.331888	0.00257858	1	1.81268e-05	39	6.199	-8.55798e-07
2	0	0	0	0	6.509	-0.332587	-0.332854	0.00246803	1	1.85757e-05	39	6.399	-8.21493e-07
2	0	0	0	0	6.709	-0.333587	-0.333861	0.00242196	1	1.90093e-05	39	6.599	-8.08598e-07
2	0	0	1	0	6.9089	-0.334587	-0.334858	0.00239248	1	1.94436e-05	39	6.7989	-8.01142e-07
2	0	0	1	0	7.1088	-0.335587	-0.335872	0.00231607	1	1.98733e-05	39	6.9988	-7.77904e-07
2	0	0	1	0	7.3088	-0.336586	-0.336866	0.00233302	1	2.02983e-05	39	7.1988	-7.85916e-07
2	1	0	1	0	7.5088	-0.337586	-0.337872	0.00222669	1	2.07091e-05	39	7.3988	-7.52336e-07
2	1	0	1	0	7.7088	-0.338586	-0.338846	0.00234997	1	2.11208e-05	39	7.5988	-7.96278e-07
2	0	0	1	0	7.9088	-0.339586	-0.339841	0.00231007	1	2.15302e-05	39	7.7988	-7.85055e-07
2	0	0	1	0	8.1087	-0.340586	-0.340855	0.00212195	1	2.19151e-05	39	7.9987	-7.23277e-07
2	0	0	0	0	8.3086	-0.341586	-0.341859	0.00206732	1	2.22875e-05	39	8.1986	-7.0673e-07
2	0	0	0	0	8.5086	-0.342585	-0.342848	0.00216404	1	2.26679e-05	39	8.3986	-7.41937e-07
2	0	0	0	0	8.7086	-0.343585	-0.343853	0.00225341	1	2.30603e-05	39	8.5986	-7.74844e-07
2	1	0	0	0	8.9086	-0.344585	-0.344859	0.0021498	1	2.34347e-05	39	8.7986	-7.41379e-07
2	1	0	0	0	9.1086	-0.345585	-0.345846	0.00210089	1	2.3794e-05	39	8.9986	-7.26586e-07
2	0	0	1	0	9.3085	-0.346585	-0.346866	0.0021032	1	2.41534e-05	39	9.1985	-7.2953e-07
2	1	0	1	0	9.5084	-0.347585	-0.347858	0.00212663	1	2.45136e-05	39	9.3984	-7.39766e-07
2	1	0	1	0	9.7084	-0.348584	-0.348854	0.00195872	1	2.48653e-05	39	9.5984	-6.83308e-07
2	0	0	1	0	9.9084	-0.349584	-0.349867	0.00195997	1	2.51987e-05	39	9.7984	-6.85731e-07
2	0	0	1	0	10.1084	-0.350584	-0.350864	0.00195902	1	2.5533e-05	39	9.9984	-6.87349e-07
2	0	0	1	0	10.3084	-0.351584	-0.351876	0.0019351	1	2.58639e-05	39	10.1984	-6.80914e-07
2	0	0	1	0	10.5083	-0.352584	-0.352867	0.00206051	1	2.62081e-05	39	10.3983	-7.27084e-07
2	0	0	0	0	10.7082	-0.353584	-0.353854	0.00199021	1	2.65537e-05	39	10.5982	-7.04246e-07
2	0	0	0	0	10.9082	-0.354583	-0.354853	0.0019273	1	2.68914e-05	39	10.7982	-6.83908e-07
2	0	0	0	0	11.1082	-0.355583	-0.35585	0.00191672	1	2.72213e-05	39	10.9982	-6.82066e-07
2	1	0	0	0	11.3082	-0.356583	-0.356879	0.00185953	1	2.75399e-05	39	11.1982	-6.63626e-07
2	0	0	0	0	11.5082	-0.357583	-0.357845	0.00183958	1	2.78533e-05	39	11.3982	-6.58283e-07
2	1	0	1	0	11.7081	-0.358583	-0.358859	0.00180914	1	2.81562e-05	39	11.5981	-6.49227e-07
2	1	0	1	0	11.908	-0.359583	-0.359861	0.00185283	1	2.84661e-05	39	11.798	-6.66762e-07
2	1	0	1	0	12.108	-0.360582	-0.360839	0.00187015	1	2.87771e-05	39	11.998	-6.74823e-07
2	1	0	1	0	12.308	-0.361582	-0.361843	0.00184698	1	2.90853e-05	39	12.198	-6.68319e-07
2	0	0	1	0	12.508	-0.362582	-0.362846	0.00188515	1	2.93902e-05	39	12.398	-6.84019e-07
2	0	0	1	0	12.708	-0.363582	-0.363859	0.00194619	1	2.96998e-05	39	12.598	-7.08138e-07
2	0	0	1	0	12.9079	-0.364582	-0.364841	0.00188292	1	3.00025e-05	39	12.7979	-6.86965e-07
2	0	0	0	0	13.1078	-0.365582	-0.365844	0.00184465	1	3.02972e-05	39	12.9978	-6.74853e-07
2	1	0	0	0	13.3078	-0.366581	-0.366849	0.00186906	1	3.05906e-05	39	13.1978	-6.85664e-07
2	0	0	0	0	13.5078	-0.367581	-0.367844	0.0017288	1	3.08806e-05	39	13.3978	-6.35929e-07
2	0	0	0	0	13.7078	-0.368581	-0.36884	0.00169752	1	3.11619e-05	39	13.5978	-6.26113e-07
2	1	0	0	0	13.9078	-0.369581	-0.369865	0.00170624	1	3.14335e-05	39	13.7978	-6.3108e-07
2	1	0	1	0	14.1077	-0.370581	-0.370871	0.00176693	1	3.17067e-05	39	13.9977	-6.55305e-07
2	1	0	1	0	14.3076	-0.371581	-0.371851	0.00185249	1	3.19855e-05	39	14.1976	-6.88851e-07
2	1	0	1	0	14.5076	-0.37258	-0.372852	0.00174894	1	3.22687e-05	39	14.3976	-6.52097e-07
2	1	0	1	0	14.7076	-0.37358	-0.373863	0.00177426	1	3.25443e-05	39	14.5976	-6.6333e-07
2	1	0	1	0	14.9076	-0.37458	-0.374876	0.00171844	1	3.28257e-05	39	14.7976	-6.44201e-07
2	1	0	1	0	15.1075	-0.375579	-0.375866	0.0017486	1	3.31035e-05	39	14.9975	-6.57241e-07
2	1	0	0	0	15.3074	-0.37658	-0.376877	0.00179425	1	3.33829e-05	39	15.1974	-6.76211e-07
2	1	0	0	0	15.5074	-0.37758	-0.37786	0.00166828	1	3.36578e-05	39	15.3974	-6.30374e-07
2	1	0	0	0	15.7074	-0.378579	-0.378829	0.00168649	1	3.39183e-05	39	15.5974	-6.38892e-07
2	1	0	0	0	15.9074	-0.379579	-0.379851	0.00170902	1	3.41832e-05	39	15.7974	-6.49175e-07
2	1	0	0	0	16.1074	-0.380579	-0.380868	0.00158606	1	3.44371e-05	39	15.9974	-6.04078e-07
2	0	0	1	0	16.3073	-0.381578	-0.381863	0.00161309	1	3.46795e-05	39	16.1973	-6.15981e-07
2	1	0	1	0	16.5072	-0.382579	-0.382854	0.00170983	1	3.49296e-05	39	16.3972	-6.54614e-07
2	1	0	1	0	16.7072	-0.383578	-0.383846	0.00166299	1	3.5186e-05	39	16.5972	-6.3833e-07
2	1	0	1	0	16.9072	-0.384578	-0.384854	0.00173123	1	3.54382e-05	39	16.7972	-6.66269e-07
2	0	0	1	0	17.1072	-0.385578	-0.385864	0.00160257	1	3.56833e-05	39	16.9972	-6.18373e-07
2	1	0	1	0	17.3072	-0.386578	-0.386853	0.00158603	1	3.59184e-05	39	17.1972	-6.1356e-07
2	1	0	1	0	17.5071	-0.387578	-0.38786	0.00167056	1	3.61637e-05	39	17.3971	-6.47943e-07
2	0	0	0	0	17.707	-0.388578	-0.388845	0.0017684	1	3.64187e-05	39	17.597	-6.87633e-07
2	0	0	0	0	17.907	-0.389577	-0.389845	0.00156279	1	3.66713e-05	39	17.797	-6.09245e-07
2	1	0	0	0	18.107	-0.390577	-0.390863	0.00167219	1	3.69118e-05	39	17.997	-6.53596e-07
2	1	0	0	0	18.307	-0.391577	-0.391842	0.00157812	1	3.71495e-05	39	18.197	-6.18372e-07
2	1	0	0	0	18.507	-0.392577	-0.392825	0.00173634	1	3.73955e-05	39	18.397	-6.82079e-07
2	0	0	1	0	18.7069	-0.393577	-0.393855	0.0016473	1	3.76407e-05	39	18.5969	-6.48797e-07
2	1	0	1	0	18.9068	-0.394577	-0.394845	0.00165661	1	3.78793e-05	39	18.7968	-6.54103e-07
2	0	0	1	0	19.1068	-0.395576	-0.39584	0.00155578	1	3.81127e-05	39	18.9968	-6.1584e-07
2	1	0	1	0	19.3068	-0.396576	-0.396855	0.00157105	1	3.83425e-05	39	19.1968	-6.2348e-07
2	1	0	1	0	19.5068	-0.397576	-0.397846	0.00157437	1	3.85637e-05	39	19.3968	-6.26357e-07
2	1	0	1	0	19.7068	-0.398576	-0.398852	0.00161423	1	3.8788e-05	39	19.5968	-6.4384e-07
2	1	0	1	0	19.9067	-0.399576	-0.399867	0.00154757	1	3.90095e-05	39	19.7967	-6.18823e-07
2	1	0	0	0	20.1066	-0.400576	-0.400853	0.00161173	1	3.92272e-05	39	19.9966	-6.46064e-07
2	1	0	0	0	20.3066	-0.401575	-0.401854	0.00158158	1	3.94513e-05	39	20.1966	-6.35563e-07
2	1	0	0	0	20.5066	-0.402575	-0.402834	0.00156658	1	3.96829e-05	39	20.3966	-6.31073e-07
2	1	0	0	0	20.7066	-0.403575	-0.40385	0.00155265	1	3.99087e-05	39	20.5966	-6.27038e-07
2	1	0	0	0	20.9066	-0.404575	-0.404853	0.00157823	1	4.01323e-05	39	20.7966	-6.3895e-07
2	1	0	1	0	21.1065	-0.405575	-0.405852	0.0015369	1	4.03547e-05	39	20.9965	-6.23752e-07
2	1	0	1	0	21.3064	-0.406575	-0.406878	0.00158849	1	4.05774e-05	39	21.1964	-6.4632e-07
2	1	0	1	0	21.5064	-0.407574	-0.407839	0.00155874	1	4.0802e-05	39	21.3964	-6.35715e-07
2	1	0	1	0	21.7064	-0.408574	-0.408876	0.00149273	1	4.10188e-05	39	21.5964	-6.10343e-07
2	1	0	1	0	21.9064	-0.409574	-0.40988	0.00143045	1	4.1227e-05	39	21.7964	-5.86313e-07
2	1	0	1	0	22.1064	-0.410574	-0.410885	0.00153409	1	4.14361e-05	39	21.9964	-6.30334e-07
2	1	0	1	0	22.3063	-0.411574	-0.411872	0.00153854	1	4.16499e-05	39	22.1963	-6.33682e-07
2	1	0	0	0	22.5062	-0.412574	-0.412883	0.0014592	1	4.18513e-05	39	22.3962	-6.02477e-07
2	1	0	0	0	22.7062	-0.413573	-0.413869	0.00151646	1	4.20566e-05	39	22.5962	-6.27618e-07
2	1	0	0	0	22.9062	-0.414573	-0.414872	0.00152251	1	4.2264e-05	39	22.7962	-6.31649e-07
2	1	0	0	0	23.1062	-0.415573	-0.41589	0.00159774	1	4.2474e-05	39	22.9962	-6.64483e-07
2	1	0	0	0	23.3062	-0.416573	-0.416876	0.00157174	1	4.26897e-05	39	23.1962	-6.55221e-07
2	1	0	1	0	23.5061	-0.417573	-0.417861	0.00140643	1	4.28936e-05	39	23.3961	-5.87692e-07
2	1	0	1	0	23.706	-0.418573	-0.418871	0.0015019	1	4.30873e-05	39	23.596	-6.291e-07
2	1	0	1	0	23.906	-0.419572	-0.419875	0.00151306	1	4.32886e-05	39	23.796	-6.35297e-07
2	1	0	1	0	24.106	-0.420572	-0.420859	0.00141917	1	4.34853e-05	39	23.996	-5.9727e-07
2	1	0	1	0	24.306	-0.421572	-0.421866	0.00154297	1	4.3687e-05	39	24.196	-6.50925e-07
2	1	0	1	0	24.506	-0.422572	-0.422872	0.00147971	1	4.38916e-05	39	24.396	-6.25726e-07
2	1	0	1	0	24.7059	-0.423572	-0.423859	0.00159188	1	4.40997e-05	39	24.5959	-6.74731e-07
2	1	0	0	0	24.9058	-0.424572	-0.424872	0.00141872	1	4.4302e-05	39	24.7958	-6.02773e-07
2	1	0	0	0	25.1058	-0.425571	-0.425875	0.00147309	1	4.4494e-05	39	24.9958	-6.27354e-07
2	1	0	0	0	25.3058	-0.426571	-0.426871	0.00142639	1	4.46934e-05	39	25.1958	-6.08883e-07
2	1	0	0	0	25.5058	-0.427571	-0.427882	0.00145357	1	4.48873e-05	39	25.3958	-6.21956e-07
2	1	0	0	0	25.7058	-0.428571	-0.428882	0.00148613	1	4.50831e-05	39	25.5958	-6.37372e-07
2	1	0	1	0	25.9057	-0.429571	-0.429871	0.00145457	1	4.52753e-05	39	25.7957	-6.25279e-07
2	1	0	1	0	26.1056	-0.430571	-0.430866	0.00150417	1	4.54635e-05	39	25.9956	-6.48095e-07
2	1	0	1	0	26.3056	-0.43157	-0.431873	0.00151006	1	4.56628e-05	39	26.1956	-6.52152e-07
2	1	0	1	0	26.5056	-0.43257	-0.432868	0.00154797	1	4.58567e-05	39	26.3956	-6.70065e-07
2	1	0	1	0	26.7056	-0.43357	-0.433884	0.00139962	1	4.60461e-05	39	26.5956	-6.07274e-07