File: Fig 3/Fig 3_RRDE-np-Fe2O3_10mvs_ring (2).mpt
mode	ox/red	error	control changes	counter inc.	time/s	control/V	Ewe/V	<I>/mA	cycle number	(Q-Qo)/C	I Range	step time/s	P/W
2	0	0	0	0	0.000000000000000E+000	-0.299976	-0.299894	-0.0837733	1	0.0000000E+000	39	0.000000000000000E+000	2.51231e-05
2	1	0	0	0	0.355	-0.303526	-0.303468	0.00346863	1	-7.82806e-07	39	0.1	-1.05262e-06
2	1	0	0	0	0.755	-0.307525	-0.30745	0.000667416	1	-5.66271e-07	39	0.5	-2.05197e-07
2	1	0	1	0	1.1549	-0.311525	-0.311451	0.000743822	1	-4.86576e-07	39	0.8999	-2.31664e-07
2	1	0	1	0	1.5548	-0.315524	-0.31544	0.000750776	1	-3.91976e-07	39	1.2998	-2.36824e-07
2	1	0	1	0	1.9548	-0.319523	-0.319451	0.000790286	1	-3.00095e-07	39	1.6998	-2.52458e-07
2	1	0	0	0	2.3546	-0.323522	-0.323415	0.000903215	1	-1.7617e-07	39	2.0996	-2.92113e-07
2	1	0	0	0	2.7546	-0.327522	-0.327476	0.00104677	1	-4.00276e-08	39	2.4996	-3.42791e-07
2	1	0	0	0	3.1546	-0.331521	-0.33147	0.00103875	1	1.14391e-07	39	2.8996	-3.44314e-07
2	1	0	1	0	3.5544	-0.33552	-0.335449	0.000972285	1	2.54641e-07	39	3.2994	-3.26152e-07
2	1	0	1	0	3.9544	-0.339519	-0.339441	0.000895234	1	4.11575e-07	39	3.6994	-3.03879e-07
2	1	0	1	0	4.3544	-0.343519	-0.343432	0.000878451	1	5.66524e-07	39	4.0994	-3.01688e-07
2	1	0	0	0	4.7542	-0.347518	-0.347449	0.000749057	1	7.23503e-07	39	4.4992	-2.60259e-07
2	1	0	0	0	5.1542	-0.351517	-0.35145	0.000973972	1	8.42314e-07	39	4.8992	-3.42302e-07
2	1	0	0	0	5.5542	-0.355517	-0.355475	0.000867765	1	9.66994e-07	39	5.2992	-3.08468e-07
2	1	0	1	0	5.954	-0.359516	-0.359441	0.000976353	1	1.09136e-06	39	5.699	-3.50942e-07
2	1	0	1	0	6.354	-0.363515	-0.363457	0.000868785	1	1.22428e-06	39	6.099	-3.15766e-07
2	1	0	1	0	6.754	-0.367515	-0.367421	0.00103395	1	1.36428e-06	39	6.499	-3.79895e-07
2	1	0	0	0	7.1538	-0.371514	-0.371464	0.000990273	1	1.50554e-06	39	6.8988	-3.67851e-07
2	1	0	0	0	7.5538	-0.375513	-0.37543	0.00100488	1	1.63665e-06	39	7.2988	-3.77263e-07
2	1	0	0	0	7.9538	-0.379513	-0.379433	0.000854048	1	1.78306e-06	39	7.6988	-3.24054e-07
2	1	0	1	0	8.3536	-0.383512	-0.383425	0.00104776	1	1.91391e-06	39	8.0986	-4.01739e-07
2	1	0	1	0	8.7536	-0.387511	-0.38741	0.00102592	1	2.04401e-06	39	8.4986	-3.97452e-07
2	1	0	1	0	9.1536	-0.391511	-0.391431	0.00100568	1	2.1628e-06	39	8.8986	-3.93655e-07
2	1	0	0	0	9.5534	-0.39551	-0.395433	0.000973339	1	2.28908e-06	39	9.2984	-3.8489e-07
2	1	0	0	0	9.9534	-0.399509	-0.399401	0.000995708	1	2.41118e-06	39	9.6984	-3.97687e-07
2	1	0	0	0	10.3534	-0.403509	-0.403437	0.000981456	1	2.51622e-06	39	10.0984	-3.95956e-07
2	1	0	1	0	10.7532	-0.407508	-0.407412	0.00104081	1	2.62138e-06	39	10.4982	-4.24036e-07
2	1	0	1	0	11.1532	-0.411507	-0.411435	0.000943967	1	2.72521e-06	39	10.8982	-3.88381e-07
2	1	0	1	0	11.5532	-0.415507	-0.415424	0.00108258	1	2.83185e-06	39	11.2982	-4.49731e-07
2	1	0	0	0	11.953	-0.419506	-0.419446	0.001005	1	2.95192e-06	39	11.698	-4.21545e-07
2	1	0	0	0	12.353	-0.423505	-0.423447	0.000983287	1	3.04561e-06	39	12.098	-4.1637e-07
2	1	0	0	0	12.753	-0.427505	-0.427439	0.000834664	1	3.11861e-06	39	12.498	-3.56768e-07
2	1	0	1	0	13.1528	-0.431504	-0.431433	0.000954607	1	3.18069e-06	39	12.8978	-4.11849e-07
2	0	0	1	0	13.5528	-0.435503	-0.435432	0.000863472	1	3.26274e-06	39	13.2978	-3.75983e-07
2	1	0	1	0	13.9528	-0.439503	-0.439391	0.000987726	1	3.33897e-06	39	13.6978	-4.33998e-07
2	1	0	0	0	14.3526	-0.443502	-0.443404	0.00107037	1	3.43422e-06	39	14.0976	-4.74605e-07
2	0	0	0	0	14.7526	-0.447501	-0.447412	0.000819007	1	3.50814e-06	39	14.4976	-3.66434e-07
2	0	0	0	0	15.1526	-0.451501	-0.451395	0.000919396	1	3.58993e-06	39	14.8976	-4.1501e-07
2	1	0	1	0	15.5524	-0.4555	-0.455426	0.000891188	1	3.627e-06	39	15.2974	-4.0587e-07
2	0	0	1	0	15.9524	-0.459499	-0.459416	0.000843023	1	3.68564e-06	39	15.6974	-3.87298e-07
2	1	0	1	0	16.3524	-0.463499	-0.46341	0.000986818	1	3.7417e-06	39	16.0974	-4.57301e-07
2	0	0	0	0	16.7522	-0.467498	-0.467388	0.00078312	1	3.7763e-06	39	16.4972	-3.66021e-07
2	0	0	0	0	17.1522	-0.471497	-0.47139	0.000967484	1	3.7894e-06	39	16.8972	-4.56062e-07
2	1	0	0	0	17.5522	-0.475497	-0.475408	0.000919709	1	3.82208e-06	39	17.2972	-4.37237e-07
2	0	0	1	0	17.952	-0.479496	-0.479406	0.000816864	1	3.8376e-06	39	0.000000000000000E+000	-3.91609e-07
2	0	0	1	0	18.352	-0.483495	-0.483417	0.000887147	1	3.84658e-06	39	0.2	-4.28862e-07
2	0	0	1	0	18.752	-0.487494	-0.487401	0.000848983	1	3.85286e-06	39	0.1	-4.13795e-07
2	0	0	0	0	19.1518	-0.491494	-0.49141	0.000827147	1	3.834e-06	39	0.4998	-4.06468e-07
2	0	0	0	0	19.5518	-0.495493	-0.495398	0.000608979	1	3.79137e-06	39	0.8998	-3.01687e-07
2	0	0	0	0	19.9518	-0.499493	-0.499409	0.00065895	1	3.7531e-06	39	1.2998	-3.29086e-07
2	0	0	1	0	20.3516	-0.503492	-0.503434	0.000725441	1	3.69815e-06	39	1.6996	-3.65212e-07
2	0	0	1	0	20.7516	-0.507491	-0.507419	0.000766666	1	3.63433e-06	39	2.0996	-3.8902e-07
2	0	0	1	0	21.1516	-0.51149	-0.511398	0.000599603	1	3.56379e-06	39	2.4996	-3.06636e-07
2	0	0	0	0	21.5514	-0.51549	-0.515404	0.000683755	1	3.49528e-06	39	2.8994	-3.5241e-07
2	0	0	0	0	21.9514	-0.519489	-0.519424	0.000673218	1	3.42047e-06	39	3.2994	-3.49685e-07
2	0	0	0	0	22.3514	-0.523488	-0.523433	0.000689284	1	3.33099e-06	39	3.6994	-3.60794e-07
2	0	0	1	0	22.7512	-0.527488	-0.527421	0.00077202	1	3.26238e-06	39	4.0992	-4.0718e-07
2	0	0	1	0	23.1512	-0.531487	-0.531409	0.000475925	1	3.1781e-06	39	4.4992	-2.52911e-07
2	0	0	1	0	23.5512	-0.535486	-0.535428	0.000410522	1	3.06051e-06	39	4.8992	-2.19805e-07
2	0	0	0	0	23.951	-0.539486	-0.539408	0.000610384	1	2.95932e-06	39	5.299	-3.29246e-07
2	0	0	0	0	24.351	-0.543485	-0.543394	0.000500166	1	2.86676e-06	39	5.699	-2.71787e-07
2	0	0	0	0	24.751	-0.547484	-0.547402	0.000483541	1	2.73417e-06	39	6.099	-2.64691e-07
2	0	0	1	0	25.1508	-0.551484	-0.55141	0.000525064	1	2.58679e-06	39	6.4988	-2.89525e-07
2	0	0	1	0	25.5508	-0.555483	-0.555404	0.000343249	1	2.43893e-06	39	6.8988	-1.90642e-07
2	0	0	1	0	25.9508	-0.559482	-0.559418	0.000603093	1	2.2898e-06	39	7.2988	-3.37381e-07
2	0	0	0	0	26.3506	-0.563482	-0.56339	0.000357775	1	2.12511e-06	39	7.6986	-2.01567e-07
2	0	0	0	0	26.7506	-0.567481	-0.567387	0.000426039	1	1.93265e-06	39	8.0986	-2.41729e-07
2	0	0	0	0	27.1506	-0.57148	-0.57141	0.000432673	1	1.75059e-06	39	8.4986	-2.47233e-07
2	0	0	1	0	27.5504	-0.57548	-0.575407	0.000552066	1	1.6034e-06	39	8.8984	-3.17663e-07
2	0	0	1	0	27.9504	-0.579479	-0.579383	0.000391717	1	1.4183e-06	39	9.2984	-2.26954e-07
2	0	0	1	0	28.3504	-0.583479	-0.583403	0.000516629	1	1.21834e-06	39	9.6984	-3.01403e-07
2	0	0	0	0	28.7502	-0.587478	-0.587386	0.000491921	1	1.01543e-06	39	10.0982	-2.88947e-07
2	0	0	0	0	29.1502	-0.591477	-0.591392	0.000381459	1	8.20496e-07	39	10.4982	-2.25592e-07
2	0	0	1	0	29.5502	-0.595477	-0.595379	0.000386409	1	5.99325e-07	39	10.8982	-2.3006e-07
2	0	0	1	0	29.95	-0.599476	-0.599375	0.000364612	1	3.86624e-07	39	11.298	-2.18539e-07
2	0	0	1	0	30.35	-0.603475	-0.6034	0.000382482	1	1.68198e-07	39	11.698	-2.30789e-07
2	0	0	1	0	30.7499	-0.607474	-0.607396	0.000365862	1	-7.07355e-08	39	12.0979	-2.22223e-07
2	0	0	0	0	31.1498	-0.611474	-0.61138	0.000320432	1	-3.23737e-07	39	12.4978	-1.95906e-07
2	0	0	0	0	31.5498	-0.615473	-0.615401	0.000193307	1	-5.85877e-07	39	12.8978	-1.18962e-07
2	0	0	1	0	31.9497	-0.619472	-0.619395	9.02228e-05	1	-8.55656e-07	39	13.2977	-5.58835e-08
2	0	0	1	0	32.3496	-0.623472	-0.623372	0.00025315	1	-1.1365e-06	39	13.6976	-1.57807e-07
2	1	0	1	0	32.7496	-0.627471	-0.627384	-2.06838e-05	1	-1.43944e-06	39	14.0976	1.29767e-08
2	0	0	1	0	33.1495	-0.63147	-0.631401	-4.49749e-05	1	-1.7569e-06	39	14.4975	2.83972e-08
2	0	0	0	0	33.5494	-0.63547	-0.635385	0.000100309	1	-2.08163e-06	39	14.8974	-6.37349e-08
2	0	0	0	0	33.9494	-0.639469	-0.63938	-3.84055e-05	1	-2.43622e-06	39	15.2974	2.45557e-08
2	0	0	1	0	34.3493	-0.643469	-0.643377	-0.000228218	1	-2.78689e-06	39	15.6973	1.4683e-07
2	0	0	1	0	34.7492	-0.647467	-0.647381	-5.49589e-05	1	-3.1892e-06	39	16.0972	3.55794e-08
2	0	0	1	0	35.1492	-0.651467	-0.65138	-0.000188052	1	-3.61195e-06	39	16.4972	1.22493e-07
2	0	0	1	0	35.5491	-0.655467	-0.655383	-0.000160456	1	-4.04017e-06	39	16.8971	1.0516e-07
2	0	0	0	0	35.949	-0.659465	-0.659398	-0.000325595	1	-4.48086e-06	39	17.297	2.14697e-07
2	0	0	0	0	36.349	-0.663465	-0.663366	-9.42619e-05	1	-4.90434e-06	39	17.697	6.25302e-08
2	0	0	1	0	36.7488	-0.667464	-0.667394	-0.000408953	1	-5.37372e-06	39	18.0968	2.72933e-07
2	0	0	1	0	37.1488	-0.671464	-0.671377	-0.00035255	1	-5.89702e-06	39	18.4968	2.36694e-07
2	0	0	1	0	37.5488	-0.675463	-0.675377	-0.000268828	1	-6.39848e-06	39	18.8968	1.81561e-07
2	1	0	0	0	37.9486	-0.679462	-0.679405	-0.000316559	1	-6.87851e-06	39	19.2966	2.15072e-07
2	1	0	0	0	38.3486	-0.683461	-0.683396	-0.000390085	1	-7.41216e-06	39	19.6966	2.66582e-07
2	0	0	0	0	38.7486	-0.687461	-0.687371	-0.000521726	1	-7.92618e-06	39	20.0966	3.58619e-07
2	1	0	1	0	39.1484	-0.69146	-0.691376	-0.000594674	1	-8.4964e-06	39	20.4964	4.11143e-07
2	0	0	1	0	39.5484	-0.695459	-0.695383	-0.000565313	1	-9.08282e-06	39	20.8964	3.93109e-07
2	0	0	1	0	39.9484	-0.699459	-0.699377	-0.000657693	1	-9.69103e-06	39	21.2964	4.59975e-07
2	0	0	0	0	40.3482	-0.703458	-0.703396	-0.000594406	1	-1.03095e-05	39	21.6962	4.18103e-07
2	1	0	0	0	40.7482	-0.707457	-0.707378	-0.000627537	1	-1.09823e-05	39	22.0962	4.43906e-07
2	1	0	0	0	41.1482	-0.711457	-0.711391	-0.000733502	1	-1.16487e-05	39	22.4962	5.21807e-07
2	1	0	1	0	41.548	-0.715456	-0.715383	-0.000856131	1	-1.23218e-05	39	22.896	6.12461e-07
2	0	0	1	0	41.948	-0.719455	-0.719398	-0.000849223	1	-1.30258e-05	39	23.296	6.10929e-07
2	1	0	1	0	42.348	-0.723455	-0.723392	-0.000870784	1	-1.37145e-05	39	23.696	6.29919e-07
2	0	0	0	0	42.7478	-0.727454	-0.727376	-0.0010097	1	-1.44252e-05	39	24.0958	7.34429e-07
2	1	0	0	0	43.1478	-0.731453	-0.731403	-0.000960875	1	-1.51923e-05	39	24.4958	7.02787e-07
2	1	0	0	0	43.5478	-0.735453	-0.735386	-0.00115555	1	-1.5958e-05	39	24.8958	8.49778e-07
2	1	0	1	0	43.9476	-0.739452	-0.739376	-0.00118513	1	-1.67537e-05	39	25.2956	8.7626e-07
2	1	0	1	0	44.3476	-0.743451	-0.743409	-0.00105073	1	-1.75765e-05	39	25.6956	7.81122e-07
2	1	0	1	0	44.7476	-0.747451	-0.747397	-0.00112676	1	-1.83521e-05	39	26.0956	8.42138e-07
2	0	0	0	0	45.1474	-0.75145	-0.751376	-0.00125456	1	-1.91524e-05	39	26.4954	9.42645e-07
2	1	0	0	0	45.5474	-0.755449	-0.755387	-0.00130618	1	-2.00034e-05	39	26.8954	9.86669e-07
2	1	0	0	0	45.9474	-0.759449	-0.759385	-0.00131236	1	-2.08527e-05	39	27.2954	9.96585e-07
2	0	0	1	0	46.3472	-0.763448	-0.76339	-0.00129395	1	-2.17169e-05	39	27.6952	9.87791e-07
2	1	0	1	0	46.7472	-0.767447	-0.767384	-0.00140963	1	-2.25933e-05	39	28.0952	1.08173e-06
2	1	0	1	0	47.1472	-0.771447	-0.771402	-0.00146274	1	-2.35103e-05	39	28.4952	1.12836e-06
2	1	0	0	0	47.547	-0.775446	-0.775386	-0.0014546	1	-2.44343e-05	39	28.895	1.12787e-06
2	1	0	0	0	47.947	-0.779445	-0.779379	-0.00158167	1	-2.53767e-05	39	29.295	1.23272e-06
2	1	0	0	0	48.347	-0.783445	-0.78337	-0.00148319	1	-2.63472e-05	39	29.695	1.16189e-06
2	1	0	1	0	48.7468	-0.787444	-0.787396	-0.0016068	1	-2.73028e-05	39	30.0948	1.26519e-06
2	0	0	1	0	49.1468	-0.791443	-0.791384	-0.00177008	1	-2.82881e-05	39	30.4948	1.40081e-06
2	1	0	1	0	49.5468	-0.795443	-0.795356	-0.00168931	1	-2.92951e-05	39	30.8948	1.3436e-06
2	1	0	0	0	49.9466	-0.799442	-0.79937	-0.00185787	1	-3.03318e-05	39	31.2946	1.48513e-06
2	1	0	0	0	50.3466	-0.803441	-0.80335	-0.00198114	1	-3.1397e-05	39	31.6946	1.59155e-06
2	1	0	0	0	50.7466	-0.807441	-0.80736	-0.00190473	1	-3.24788e-05	39	32.0946	1.5378e-06
2	1	0	1	0	51.1464	-0.81144	-0.81137	-0.00181644	1	-3.35975e-05	39	32.4944	1.4738e-06
2	1	0	1	0	51.5464	-0.815439	-0.815354	-0.00201895	1	-3.47294e-05	39	32.8944	1.64616e-06
2	1	0	1	0	51.9464	-0.819439	-0.819367	-0.00215537	1	-3.59054e-05	39	33.2944	1.76604e-06
2	0	0	0	0	52.3462	-0.823438	-0.823349	-0.00220076	1	-3.7078e-05	39	33.6942	1.81199e-06
2	1	0	0	0	52.7462	-0.827437	-0.827368	-0.00215202	1	-3.82967e-05	39	34.0942	1.78051e-06
2	1	0	0	0	53.1462	-0.831437	-0.831375	-0.00232238	1	-3.95176e-05	39	34.4942	1.93077e-06
2	1	0	1	0	53.546	-0.835436	-0.835389	-0.00230192	1	-4.0783e-05	39	34.894	1.923e-06
2	0	0	1	0	53.946	-0.839435	-0.839366	-0.00248263	1	-4.2064e-05	39	35.294	2.08384e-06
2	0	0	1	0	54.346	-0.843435	-0.84336	-0.00240908	1	-4.33955e-05	39	35.694	2.03172e-06
2	0	0	0	0	54.7458	-0.847434	-0.847361	-0.00258332	1	-4.47364e-05	39	36.0938	2.18901e-06
2	1	0	0	0	55.1458	-0.851433	-0.851361	-0.0027067	1	-4.61304e-05	39	36.4938	2.30438e-06
2	0	0	0	0	55.5458	-0.855433	-0.855374	-0.00289708	1	-4.75871e-05	39	36.8938	2.47809e-06
2	0	0	1	0	55.9456	-0.859432	-0.859379	-0.0030931	1	-4.91227e-05	39	37.2936	2.65814e-06
2	0	0	1	0	56.3456	-0.863431	-0.86336	-0.00303865	1	-5.068e-05	39	37.6936	2.62345e-06
2	0	0	1	0	56.7456	-0.86743	-0.867349	-0.00321613	1	-5.23165e-05	39	38.0936	2.78951e-06
2	0	0	0	0	57.1454	-0.87143	-0.87134	-0.00357592	1	-5.40368e-05	39	38.4934	3.11584e-06
2	0	0	0	0	57.5454	-0.875429	-0.875349	-0.00361609	1	-5.58174e-05	39	38.8934	3.16534e-06
2	0	0	0	0	57.9454	-0.879428	-0.879358	-0.00380833	1	-5.76709e-05	39	39.2934	3.34889e-06
2	0	0	1	0	58.3452	-0.883428	-0.883366	-0.00419335	1	-5.96299e-05	39	39.6932	3.70427e-06
2	0	0	1	0	58.7452	-0.887427	-0.887342	-0.00430983	1	-6.16946e-05	39	40.0932	3.8243e-06
2	0	0	1	0	59.1452	-0.891426	-0.891333	-0.00464887	1	-6.3839e-05	39	40.4932	4.1437e-06
2	0	0	0	0	59.545	-0.895426	-0.895339	-0.00510052	1	-6.61481e-05	39	40.893	4.56669e-06
2	0	0	0	0	59.945	-0.899425	-0.899346	-0.0055456	1	-6.85968e-05	39	41.293	4.98741e-06
2	0	0	0	0	60.345	-0.903424	-0.903341	-0.00595743	1	-7.12478e-05	39	41.693	5.3816e-06
2	0	0	1	0	60.7448	-0.907424	-0.907336	-0.00637804	1	-7.40732e-05	39	42.0928	5.78702e-06
2	0	0	1	0	61.1448	-0.911423	-0.911326	-0.00686434	1	-7.71327e-05	39	42.4928	6.25564e-06
2	0	0	1	0	61.5448	-0.915422	-0.91534	-0.00790079	1	-8.04477e-05	39	42.8928	7.23191e-06
2	0	0	0	0	61.9446	-0.919422	-0.919336	-0.00842685	1	-8.40339e-05	39	43.2926	7.74711e-06
2	0	0	0	0	62.3446	-0.923421	-0.92335	-0.00919933	1	-8.79291e-05	39	43.6926	8.4942e-06
2	0	0	0	0	62.7446	-0.92742	-0.927362	-0.0102163	1	-9.21845e-05	39	44.0926	9.4742e-06
2	0	0	1	0	63.1444	-0.93142	-0.93136	-0.0112925	1	-9.68481e-05	39	44.4924	1.05173e-05
2	0	0	1	0	63.5444	-0.935419	-0.935367	-0.0126588	1	-0.000101946	39	44.8924	1.18406e-05
2	0	0	1	0	63.9444	-0.939419	-0.939353	-0.0138606	1	-0.000107575	39	45.2924	1.302e-05
2	0	0	0	0	64.3442	-0.943418	-0.943342	-0.0152184	1	-0.000113762	39	45.6922	1.43562e-05
2	0	0	0	0	64.7442	-0.947417	-0.947355	-0.016781	1	-0.000120516	39	46.0922	1.58975e-05
2	0	0	1	0	65.1441	-0.951416	-0.951349	-0.0182331	1	-0.000127856	39	46.4921	1.7346e-05
2	0	0	1	0	65.544	-0.955416	-0.955316	-0.0198363	1	-0.000135877	39	46.892	1.895e-05
2	0	0	1	0	65.944	-0.959415	-0.959314	-0.0219268	1	-0.000144602	39	47.292	2.10347e-05
2	0	0	1	0	66.3439	-0.963414	-0.963327	-0.0237146	1	-0.000154063	39	47.6919	2.28449e-05
2	0	0	0	0	66.7438	-0.967414	-0.967322	-0.025242	1	-0.000164292	39	48.0918	2.44171e-05
2	0	0	0	0	67.1438	-0.971413	-0.97133	-0.0269704	1	-0.000175107	39	48.4918	2.61971e-05
2	0	0	1	0	67.5437	-0.975412	-0.97534	-0.0286831	1	-0.0001866	39	48.8917	2.79758e-05
2	0	0	1	0	67.9436	-0.979412	-0.979316	-0.0300337	1	-0.000198682	39	49.2916	2.94125e-05
2	0	0	1	0	68.3436	-0.983411	-0.983309	-0.0313699	1	-0.00021132	39	49.6916	3.08463e-05
2	0	0	1	0	68.7435	-0.987411	-0.98735	-0.0322955	1	-0.000224425	39	50.0915	3.1887e-05
2	0	0	0	0	69.1434	-0.99141	-0.991332	-0.0343016	1	-0.000238093	39	50.4914	3.40043e-05
2	0	0	0	0	69.5434	-0.995409	-0.995332	-0.0341912	1	-0.000252175	39	50.8914	3.40316e-05
2	0	0	1	0	69.9433	-0.999409	-0.999305	-0.0349149	1	-0.000266336	39	51.2913	3.48906e-05
2	0	0	1	0	70.3432	-1.00341	-1.0033	-0.0351303	1	-0.000280747	39	51.6912	3.52463e-05
2	0	0	1	0	70.7432	-1.00741	-1.0073	-0.0350359	1	-0.0002952	39	52.0912	3.52918e-05
2	0	0	1	0	71.1431	-1.01141	-1.01132	-0.0352151	1	-0.000309624	39	52.4911	3.56137e-05
2	0	0	0	0	71.543	-1.01541	-1.01532	-0.0354561	1	-0.000324081	39	52.891	3.59993e-05
2	0	0	0	0	71.943	-1.0194	-1.0193	-0.0355488	1	-0.000338632	39	53.291	3.62347e-05
2	0	0	1	0	72.3428	-1.0234	-1.02329	-0.0356045	1	-0.000353192	39	53.6908	3.64338e-05
2	0	0	1	0	72.7428	-1.0274	-1.0273	-0.0354203	1	-0.000367775	39	54.0908	3.63872e-05
2	0	0	1	0	73.1428	-1.0314	-1.03132	-0.0356086	1	-0.000382336	39	54.4908	3.67238e-05
2	0	0	1	0	73.5427	-1.0354	-1.03532	-0.0356441	1	-0.000396944	39	54.8907	3.6903e-05
2	0	0	0	0	73.9426	-1.0394	-1.03931	-0.0359355	1	-0.000411605	39	55.2906	3.73481e-05
2	0	0	0	0	74.3426	-1.0434	-1.04329	-0.0358711	1	-0.000426337	39	55.6906	3.74239e-05
2	0	0	1	0	74.7424	-1.0474	-1.04732	-0.0358663	1	-0.000441012	39	56.0904	3.75633e-05
2	0	0	1	0	75.1424	-1.0514	-1.05132	-0.0359319	1	-0.000455733	39	56.4904	3.77758e-05
2	0	0	1	0	75.5424	-1.0554	-1.0553	-0.0361236	1	-0.000470489	39	56.8904	3.81214e-05
2	0	0	0	0	75.9422	-1.0594	-1.05932	-0.0364043	1	-0.000485304	39	57.2902	3.85636e-05
2	0	0	0	0	76.3422	-1.0634	-1.06332	-0.0361436	1	-0.000500192	39	57.6902	3.84323e-05
2	0	0	0	0	76.7422	-1.0674	-1.06732	-0.0361631	1	-0.000515018	39	58.0902	3.85976e-05
2	0	0	1	0	77.142	-1.0714	-1.0713	-0.0364186	1	-0.000529902	39	58.49	3.90152e-05
2	0	0	1	0	77.542	-1.0754	-1.07531	-0.0366278	1	-0.000544876	39	58.89	3.93864e-05
2	0	0	1	0	77.942	-1.07939	-1.07931	-0.0366537	1	-0.000559874	39	59.29	3.95607e-05
2	0	0	0	0	78.3418	-1.08339	-1.08331	-0.0366984	1	-0.000574894	39	59.6898	3.97557e-05
2	0	0	0	0	78.7418	-1.08739	-1.08731	-0.0367027	1	-0.000589959	39	60.0898	3.99071e-05
2	0	0	0	0	79.1418	-1.09139	-1.09128	-0.0371268	1	-0.00060514	39	60.4898	4.05159e-05
2	0	0	1	0	79.5416	-1.09539	-1.0953	-0.0375802	1	-0.000620363	39	60.8896	4.11615e-05
2	0	0	1	0	79.9416	-1.09939	-1.09929	-0.0373731	1	-0.000635782	39	61.2896	4.10838e-05
2	0	0	1	0	80.3416	-1.10339	-1.10331	-0.0373881	1	-0.00065109	39	61.6896	4.12506e-05
2	0	0	0	0	80.7414	-1.10739	-1.10728	-0.0377668	1	-0.0006666	39	62.0894	4.18186e-05
2	0	0	0	0	81.1414	-1.11139	-1.11129	-0.0380696	1	-0.000682145	39	62.4894	4.23062e-05
2	0	0	0	0	81.5414	-1.11539	-1.1153	-0.0380265	1	-0.000697735	39	62.8894	4.24109e-05
2	0	0	1	0	81.9412	-1.11939	-1.1193	-0.0381254	1	-0.000713343	39	63.2892	4.26738e-05
2	0	0	1	0	82.3412	-1.12339	-1.12329	-0.0387307	1	-0.00072911	39	63.6892	4.3506e-05
2	0	0	1	0	82.7412	-1.12739	-1.12728	-0.0391368	1	-0.000745051	39	64.0892	4.41181e-05
2	0	0	0	0	83.141	-1.13139	-1.13129	-0.0415062	1	-0.000761427	39	64.489	4.69555e-05
2	0	0	0	0	83.541	-1.13539	-1.13528	-0.0465846	1	-0.000779284	39	64.889	5.28868e-05
2	0	0	0	0	83.941	-1.13938	-1.1393	-0.0614041	1	-0.00080102	39	65.289	6.99576e-05
2	0	0	1	0	84.3408	-1.14338	-1.1433	-0.0915659	1	-0.000831576	39	65.6888	0.000104688
2	0	0	1	0	84.7408	-1.14738	-1.14728	-0.134452	1	-0.000876925	39	66.0888	0.000154254
2	0	0	1	0	85.1408	-1.15138	-1.15127	-0.174868	1	-0.000939566	39	66.4888	0.000201319
2	0	0	0	0	85.5406	-1.15538	-1.15528	-0.196878	1	-0.00101476	39	66.8886	0.000227448
2	0	0	0	0	85.9406	-1.15938	-1.15928	-0.200583	1	-0.00109514	39	67.2886	0.000232532
2	0	0	0	0	86.3406	-1.16338	-1.1633	-0.203384	1	-0.00117664	39	67.6886	0.000236597
2	0	0	1	0	86.7404	-1.16738	-1.16728	-0.196304	1	-0.00125706	39	68.0884	0.000229142
2	0	0	1	0	87.1404	-1.17138	-1.17126	-0.185433	1	-0.00133457	39	68.4884	0.000217191
2	0	0	1	0	87.5404	-1.17538	-1.17528	-0.176877	1	-0.00140762	39	68.8884	0.000207881
2	0	0	0	0	87.9402	-1.17938	-1.17925	-0.170463	1	-0.001478	39	69.2882	0.000201019
2	0	0	0	0	88.3402	-1.18338	-1.18329	-0.167762	1	-0.0015459	39	69.6882	0.000198511
2	0	0	0	0	88.7402	-1.18738	-1.18729	-0.163339	1	-0.00161272	39	70.0882	0.000193931
2	0	0	1	0	89.14	-1.19138	-1.19129	-0.160367	1	-0.00167752	39	70.488	0.000191043
2	0	0	1	0	89.54	-1.19538	-1.1953	-0.158902	1	-0.00174231	39	70.888	0.000189935
2	0	0	1	0	89.94	-1.19937	-1.19929	-0.162483	1	-0.00180725	39	71.288	0.000194865
2	0	0	0	0	90.3398	-1.20337	-1.20328	-0.166658	1	-0.00187321	39	71.6878	0.000200537
2	0	0	0	0	90.7398	-1.20737	-1.2073	-0.177534	1	-0.00194231	39	72.0878	0.000214336
2	0	0	0	0	91.1398	-1.21137	-1.21129	-0.185322	1	-0.00201591	39	72.4878	0.000224479
2	0	0	1	0	91.5396	-1.21537	-1.21527	-0.200169	1	-0.00209338	39	72.8876	0.000243259
2	0	0	1	0	91.9396	-1.21937	-1.21929	-0.215343	1	-0.0021766	39	73.2876	0.000262566
2	0	0	1	0	92.3396	-1.22337	-1.22327	-0.229761	1	-0.00226602	39	73.6876	0.000281059
2	0	0	0	0	92.7394	-1.22737	-1.22728	-0.248454	1	-0.00236142	39	74.0874	0.000304922
2	0	0	0	0	93.1394	-1.23137	-1.23128	-0.263793	1	-0.00246423	39	74.4874	0.000324803
2	0	0	0	0	93.5394	-1.23537	-1.2353	-0.283886	1	-0.00257491	39	74.8874	0.000350685
2	0	0	1	0	93.9392	-1.23937	-1.23927	-0.300779	1	-0.00269174	39	75.2872	0.000372747
2	0	0	1	0	94.3392	-1.24337	-1.2433	-0.333404	1	-0.00281963	39	75.6872	0.000414521
2	0	0	1	0	94.7392	-1.24737	-1.2473	-0.357293	1	-0.00295819	39	76.0872	0.000445651
2	0	0	0	0	95.139	-1.25137	-1.25129	-0.390711	1	-0.00310767	39	76.487	0.000488893
2	0	0	0	0	95.539	-1.25537	-1.25528	-0.421515	1	-0.00327108	39	76.887	0.00052912
2	0	0	1	0	95.9389	-1.25936	-1.25927	-0.469156	1	-0.00344952	39	77.2869	0.000590795
2	0	0	1	0	96.3388	-1.26336	-1.26326	-0.501918	1	-0.00364539	39	77.6868	0.000634051
2	0	0	1	0	96.7388	-1.26736	-1.26727	-0.549868	1	-0.00385292	39	78.0868	0.000696832
2	0	0	1	0	97.1388	-1.27136	-1.27126	-0.592008	1	-0.00408045	39	78.4868	0.000752595
2	0	0	0	0	97.5386	-1.27536	-1.27527	-0.644179	1	-0.00432824	39	78.8866	0.0008215
2	0	0	0	0	97.9386	-1.27936	-1.27927	-0.733484	1	-0.00460261	39	79.2866	0.000938321
2	0	0	1	0	98.3385	-1.28336	-1.28325	-0.831002	1	-0.0049167	39	79.6865	0.00106638
2	0	0	1	0	98.7384	-1.28736	-1.28728	-0.972472	1	-0.0052764	39	80.0864	0.00125185
2	0	0	1	0	99.1384	-1.29136	-1.29126	-1.15648	1	-0.00570359	39	80.4864	0.00149331
2	0	0	1	0	99.5383	-1.29536	-1.29527	-1.37145	1	-0.00620505	39	80.8863	0.0017764
2	0	0	0	0	99.9382	-1.29936	-1.29927	-1.59368	1	-0.00679868	39	81.2862	0.00207063
2	0	0	0	0	100.338	-1.30336	-1.30325	-1.8217	1	-0.00748247	39	81.6862	0.00237413
2	0	0	1	0	100.738	-1.30736	-1.30725	-2.06939	1	-0.00826206	39	82.0861	0.0027052
2	0	0	1	0	101.138	-1.31136	-1.31127	-2.31401	1	-0.0091388	39	82.486	0.00303429
2	0	0	1	0	101.538	-1.31535	-1.31526	-2.53733	1	-0.0101105	39	82.886	0.00333724
2	0	0	1	0	101.938	-1.31935	-1.31928	-2.76758	1	-0.0111734	39	83.2859	0.0036512
2	0	0	0	0	102.338	-1.32335	-1.32326	-3.01966	1	-0.012331	39	83.6858	0.0039958
2	0	0	0	0	102.738	-1.32735	-1.32727	-3.27253	1	-0.013589	39	84.0858	0.00434352
2	0	0	1	0	103.138	-1.33135	-1.33126	-3.52666	1	-0.0149489	39	84.4857	0.00469491
2	0	0	1	0	103.538	-1.33535	-1.33526	-3.79036	1	-0.0164134	39	84.8856	0.00506109
2	0	0	1	0	103.938	-1.33935	-1.33927	-4.06719	1	-0.0179874	39	85.2856	0.00544705
2	0	0	1	0	104.337	-1.34335	-1.34329	-4.33353	1	-0.0196679	39	85.6855	0.00582118
2	0	0	0	0	104.737	-1.34735	-1.34727	-4.60521	1	-0.0214577	39	86.0854	0.00620446
2	0	0	1	1	105.003	-1.35	-1.34994	-4.8171	1	-0.0227084	39	86.3508	0.00650278
2	0	0	1	1	105.358	-1.34645	-1.34637	-4.62468	2	-0.0243835	39	86.7058	0.00622654
2	0	0	1	1	105.758	-1.34245	-1.34237	-4.41946	2	-0.02619	39	87.1057	0.00593254
2	0	0	0	1	106.158	-1.33845	-1.33836	-4.23736	2	-0.0279177	39	87.5056	0.0056711
2	0	0	0	1	106.558	-1.33445	-1.33434	-4.05563	2	-0.0295714	39	87.9056	0.0054116
2	0	0	1	1	106.957	-1.33045	-1.33035	-3.85723	2	-0.0311518	39	88.3054	0.00513145
2	0	0	1	1	107.357	-1.32645	-1.32635	-3.68508	2	-0.0326593	39	88.7054	0.00488773
2	0	0	1	1	107.757	-1.32245	-1.32235	-3.53038	2	-0.0340986	39	89.1054	0.0046684
2	0	0	0	1	108.157	-1.31845	-1.31839	-3.36608	2	-0.0354765	39	89.5052	0.0044378
2	0	0	0	1	108.557	-1.31445	-1.31436	-3.2188	2	-0.0367897	39	89.9052	0.00423065
2	0	0	0	1	108.957	-1.31046	-1.31036	-3.07163	2	-0.0380457	39	90.3052	0.00402492
2	0	0	1	1	109.357	-1.30646	-1.30634	-2.92836	2	-0.0392453	39	90.705	0.00382545
2	0	0	1	1	109.757	-1.30246	-1.30236	-2.80817	2	-0.0403921	39	91.105	0.00365725
2	0	0	1	1	110.157	-1.29846	-1.29835	-2.66916	2	-0.0414859	39	91.505	0.0034655
2	0	0	0	1	110.557	-1.29446	-1.29438	-2.54981	2	-0.0425279	39	91.9048	0.00330042
2	0	0	0	1	110.957	-1.29046	-1.29037	-2.44292	2	-0.043525	39	92.3048	0.00315228
2	0	0	0	1	111.357	-1.28646	-1.28639	-2.34334	2	-0.0444808	39	92.7048	0.00301445
2	0	0	1	1	111.757	-1.28246	-1.28237	-2.24715	2	-0.045398	39	93.1046	0.00288168
2	0	0	1	1	112.157	-1.27846	-1.27838	-2.15763	2	-0.0462771	39	93.5046	0.00275826
2	0	0	1	1	112.557	-1.27446	-1.27437	-2.07399	2	-0.0471225	39	93.9046	0.00264304
2	0	0	0	1	112.956	-1.27046	-1.27039	-1.99578	2	-0.0479341	39	94.3044	0.00253542
2	0	0	0	1	113.356	-1.26646	-1.26638	-1.92684	2	-0.0487188	39	94.7044	0.00244011
2	0	0	0	1	113.756	-1.26246	-1.26237	-1.85682	2	-0.0494744	39	95.1044	0.002344
2	0	0	1	1	114.156	-1.25846	-1.2584	-1.80055	2	-0.0502041	39	95.5042	0.00226581
2	0	0	1	1	114.556	-1.25447	-1.25438	-1.74613	2	-0.0509128	39	95.9042	0.00219032
2	0	0	1	1	114.956	-1.25047	-1.2504	-1.69415	2	-0.0515994	39	96.3042	0.00211836
2	0	0	0	1	115.356	-1.24647	-1.24641	-1.64346	2	-0.052266	39	96.704	0.00204842
2	0	0	0	1	115.756	-1.24247	-1.2424	-1.5953	2	-0.0529127	39	97.104	0.00198199
2	0	0	0	1	116.156	-1.23847	-1.23837	-1.55417	2	-0.0535423	39	97.504	0.00192464
2	0	0	1	1	116.556	-1.23447	-1.2344	-1.52023	2	-0.0541561	39	97.9038	0.00187658
2	0	0	1	1	116.956	-1.23047	-1.23039	-1.47862	2	-0.0547544	39	98.3038	0.00181928
2	0	0	1	1	117.356	-1.22647	-1.22638	-1.44142	2	-0.0553375	39	98.7038	0.00176773
2	0	0	0	1	117.756	-1.22247	-1.22239	-1.4142	2	-0.0559088	39	99.1036	0.0017287
2	0	0	0	1	118.156	-1.21847	-1.21839	-1.38973	2	-0.0564685	39	99.5036	0.00169323
2	0	0	0	1	118.556	-1.21447	-1.21437	-1.3536	2	-0.0570164	39	99.9036	0.00164377
2	0	0	1	1	118.955	-1.21047	-1.21039	-1.32349	2	-0.05755	39	100.303	0.00160195
2	0	0	1	1	119.355	-1.20647	-1.20639	-1.29183	2	-0.0580719	39	100.703	0.00155846
2	0	0	1	1	119.755	-1.20247	-1.20239	-1.26029	2	-0.0585812	39	101.103	0.00151536
2	0	0	0	1	120.155	-1.19847	-1.19838	-1.2357	2	-0.0590791	39	101.503	0.00148084
2	0	0	0	1	120.555	-1.19448	-1.19439	-1.20126	2	-0.0595652	39	101.903	0.00143478
2	0	0	0	1	120.955	-1.19048	-1.19038	-1.16622	2	-0.0600378	39	102.303	0.00138824
2	0	0	1	1	121.355	-1.18648	-1.18639	-1.13082	2	-0.0604959	39	102.703	0.00134159
2	0	0	1	1	121.755	-1.18248	-1.18238	-1.10309	2	-0.0609426	39	103.103	0.00130427
2	0	0	1	1	122.155	-1.17848	-1.17835	-1.06033	2	-0.0613744	39	103.503	0.00124944
2	0	0	0	1	122.555	-1.17448	-1.17437	-1.02325	2	-0.0617896	39	103.903	0.00120168
2	0	0	0	1	122.955	-1.17048	-1.17037	-0.967923	2	-0.0621868	39	104.303	0.00113283
2	0	0	0	1	123.355	-1.16648	-1.16641	-0.920422	2	-0.0625637	39	104.703	0.00107359
2	0	0	1	1	123.755	-1.16248	-1.16238	-0.873848	2	-0.0629217	39	105.103	0.00101575
2	0	0	1	1	124.155	-1.15848	-1.15838	-0.824155	2	-0.0632605	39	105.503	0.000954684
2	0	0	1	1	124.555	-1.15448	-1.15439	-0.776947	2	-0.0635803	39	105.903	0.000896899
2	0	0	0	1	124.954	-1.15048	-1.1504	-0.725455	2	-0.06388	39	106.302	0.000834563
2	0	0	0	1	125.354	-1.14648	-1.14641	-0.676098	2	-0.0641594	39	106.702	0.000775084
2	0	0	0	1	125.754	-1.14248	-1.14239	-0.626878	2	-0.0644193	39	107.102	0.000716138
2	0	0	1	1	126.154	-1.13848	-1.1384	-0.579126	2	-0.0646598	39	107.502	0.000659276
2	0	0	1	1	126.554	-1.13449	-1.13439	-0.532503	2	-0.0648813	39	107.902	0.000604068
2	0	0	1	1	126.954	-1.13049	-1.13038	-0.489574	2	-0.0650849	39	108.302	0.000553403
2	0	0	0	1	127.354	-1.12649	-1.12638	-0.450091	2	-0.0652716	39	108.702	0.000506974
2	0	0	0	1	127.754	-1.12249	-1.12238	-0.41039	2	-0.0654431	39	109.102	0.000460614
2	0	0	1	1	128.154	-1.11849	-1.11839	-0.371349	2	-0.0655986	39	109.502	0.000415311
2	0	0	1	1	128.554	-1.11449	-1.1144	-0.336879	2	-0.0657394	39	109.902	0.000375419
2	0	0	1	1	128.954	-1.11049	-1.11038	-0.303447	2	-0.0658668	39	110.302	0.000336942
2	0	0	1	1	129.354	-1.10649	-1.10638	-0.27227	2	-0.0659813	39	110.702	0.000301234
2	0	0	0	1	129.754	-1.10249	-1.10238	-0.244811	2	-0.066084	39	111.102	0.000269875
2	0	0	0	1	130.154	-1.09849	-1.09839	-0.218552	2	-0.066176	39	111.502	0.000240056
2	0	0	1	1	130.553	-1.09449	-1.0944	-0.192977	2	-0.0662578	39	111.901	0.000211195
2	0	0	1	1	130.953	-1.09049	-1.09041	-0.170684	2	-0.0663298	39	112.301	0.000186115
2	0	0	1	1	131.353	-1.08649	-1.08638	-0.148622	2	-0.066393	39	112.701	0.000161459
2	0	0	1	1	131.753	-1.08249	-1.0824	-0.129478	2	-0.066448	39	113.101	0.000140147
2	0	0	0	1	132.153	-1.07849	-1.07839	-0.111099	2	-0.0664956	39	113.501	0.000119808
2	0	0	0	1	132.553	-1.0745	-1.07441	-0.0943664	2	-0.0665361	39	113.901	0.000101388
2	0	0	1	1	132.953	-1.0705	-1.07041	-0.0798053	2	-0.0665704	39	114.301	8.54247e-05
2	0	0	1	1	133.353	-1.0665	-1.0664	-0.066335	2	-0.066599	39	114.701	7.07399e-05
2	0	0	1	1	133.753	-1.0625	-1.06238	-0.0540024	2	-0.0666225	39	115.101	5.73713e-05
2	0	0	1	1	134.153	-1.0585	-1.05838	-0.0434434	2	-0.0666413	39	115.501	4.59798e-05
2	0	0	0	1	134.553	-1.0545	-1.05441	-0.0340725	2	-0.0666563	39	115.901	3.59263e-05
2	0	0	0	1	134.953	-1.0505	-1.0504	-0.0258694	2	-0.0666678	39	116.301	2.71733e-05
2	0	0	1	1	135.353	-1.0465	-1.04641	-0.0188921	2	-0.0666762	39	116.701	1.97688e-05
2	0	0	1	1	135.753	-1.0425	-1.0424	-0.0123759	2	-0.0666818	39	117.101	1.29007e-05
2	0	0	1	1	136.153	-1.0385	-1.03841	-0.00610657	2	-0.066685	39	117.501	6.34111e-06
2	0	0	1	1	136.552	-1.0345	-1.03442	0.000864716	2	-0.0666855	39	0.000000000000000E+000	-8.94475e-07
2	1	0	0	1	136.952	-1.0305	-1.03042	0.00796394	2	-0.0666832	39	0.3999	-8.20623e-06
2	1	0	0	1	137.352	-1.0265	-1.02642	0.0141443	2	-0.0666781	39	0.7999	-1.4518e-05
2	1	0	1	1	137.752	-1.0225	-1.02238	0.0192386	2	-0.0666708	39	1.1997	-1.96691e-05
2	1	0	1	1	138.152	-1.01851	-1.0184	0.0218401	2	-0.0666621	39	1.5997	-2.2242e-05
2	1	0	1	1	138.552	-1.01451	-1.0144	0.0243402	2	-0.0666523	39	1.9997	-2.46907e-05
2	1	0	1	1	138.952	-1.01051	-1.01041	0.0274406	2	-0.0666415	39	2.3996	-2.77262e-05
2	1	0	0	1	139.352	-1.00651	-1.00641	0.0306251	2	-0.0666294	39	2.7995	-3.08213e-05
2	1	0	0	1	139.752	-1.00251	-1.00239	0.0338286	2	-0.066616	39	3.1995	-3.39097e-05
2	1	0	1	1	140.152	-0.998508	-0.998391	0.0372905	2	-0.0666013	39	3.5993	-3.72305e-05
2	1	0	1	1	140.552	-0.994509	-0.994426	0.0407841	2	-0.0665852	39	3.9993	-4.05568e-05
2	1	0	1	1	140.952	-0.99051	-0.990428	0.044205	2	-0.0665677	39	4.3993	-4.37818e-05
2	1	0	0	1	141.352	-0.98651	-0.986429	0.0476996	2	-0.0665488	39	4.7991	-4.70523e-05
2	1	0	0	1	141.752	-0.982511	-0.982428	0.0513184	2	-0.0665285	39	5.1991	-5.04167e-05
2	1	0	0	1	142.152	-0.978512	-0.978406	0.0551167	2	-0.0665068	39	5.5991	-5.39264e-05
2	1	0	1	1	142.551	-0.974512	-0.974416	0.0587237	2	-0.0664836	39	5.9989	-5.72213e-05
2	1	0	1	1	142.951	-0.970513	-0.970409	0.0631585	2	-0.0664587	39	6.3989	-6.12896e-05
2	1	0	1	1	143.351	-0.966514	-0.966408	0.0672392	2	-0.0664322	39	6.7989	-6.49805e-05
2	1	0	0	1	143.751	-0.962514	-0.962428	0.0727854	2	-0.0664038	39	7.1987	-7.00506e-05
2	1	0	0	1	144.151	-0.958515	-0.958433	0.0772541	2	-0.0663733	39	7.5987	-7.40429e-05
2	1	0	0	1	144.551	-0.954516	-0.954419	0.0832511	2	-0.0663406	39	7.9987	-7.94564e-05
2	1	0	1	1	144.951	-0.950517	-0.950423	0.089334	2	-0.0663057	39	8.3985	-8.49051e-05
2	1	0	1	1	145.351	-0.946517	-0.946443	0.0967548	2	-0.066268	39	8.7985	-9.1573e-05
2	1	0	1	1	145.751	-0.942518	-0.942437	0.103143	2	-0.0662277	39	9.1985	-9.72056e-05
2	1	0	0	1	146.151	-0.938519	-0.938448	0.109945	2	-0.0661848	39	9.5983	-0.000103178
2	1	0	0	1	146.551	-0.934519	-0.934437	0.117898	2	-0.0661389	39	9.9983	-0.000110168
2	1	0	0	1	146.951	-0.93052	-0.930414	0.124425	2	-0.0660901	39	10.3983	-0.000115766
2	1	0	1	1	147.351	-0.926521	-0.926423	0.131643	2	-0.0660384	39	10.7981	-0.000121958
2	1	0	1	1	147.751	-0.922521	-0.922437	0.138565	2	-0.0659841	39	11.1981	-0.000127817
2	1	0	1	1	148.151	-0.918522	-0.918433	0.144521	2	-0.065927	39	11.5981	-0.000132732
2	1	0	0	1	148.55	-0.914523	-0.91442	0.151055	2	-0.0658675	39	11.9979	-0.000138128
2	1	0	0	1	148.95	-0.910523	-0.910446	0.157332	2	-0.0658053	39	12.3979	-0.000143242
2	1	0	0	1	149.35	-0.906524	-0.906411	0.162653	2	-0.0657409	39	12.7979	-0.00014743
2	1	0	1	1	149.75	-0.902524	-0.902401	0.167307	2	-0.0656745	39	13.1977	-0.000150978
2	1	0	1	1	150.15	-0.898525	-0.898428	0.170355	2	-0.0656066	39	13.5977	-0.000153051
2	1	0	1	1	150.55	-0.894526	-0.894429	0.173342	2	-0.0655375	39	13.9977	-0.000155042
2	1	0	0	1	150.95	-0.890527	-0.890427	0.175289	2	-0.0654673	39	14.3975	-0.000156082
2	1	0	0	1	151.35	-0.886527	-0.886418	0.178587	2	-0.065396	39	14.7975	-0.000158303
2	1	0	0	1	151.75	-0.882528	-0.88243	0.177803	2	-0.0653244	39	15.1975	-0.000156899
2	1	0	1	1	152.15	-0.878529	-0.878445	0.175994	2	-0.0652533	39	15.5973	-0.000154601
2	1	0	1	1	152.55	-0.874529	-0.874463	0.174023	2	-0.0651829	39	15.9973	-0.000152176
2	1	0	1	1	152.95	-0.87053	-0.870429	0.173616	2	-0.065113	39	16.3973	-0.00015112
2	1	0	0	1	153.35	-0.866531	-0.866424	0.171666	2	-0.0650435	39	16.7971	-0.000148735
2	1	0	0	1	153.75	-0.862531	-0.862431	0.169755	2	-0.064975	39	17.1971	-0.000146402
2	1	0	0	1	154.15	-0.858532	-0.85841	0.169257	2	-0.0649069	39	17.5971	-0.000145292
2	1	0	1	1	154.549	-0.854533	-0.85441	0.166766	2	-0.0648392	39	17.9969	-0.000142487
2	1	0	1	1	154.949	-0.850533	-0.850429	0.1642	2	-0.0647726	39	18.3969	-0.000139641
2	1	0	1	1	155.349	-0.846534	-0.846432	0.16153	2	-0.064707	39	18.7969	-0.000136724
2	1	0	0	1	155.749	-0.842535	-0.842441	0.157275	2	-0.064643	39	19.1967	-0.000132495
2	1	0	0	1	156.149	-0.838535	-0.838435	0.153461	2	-0.0645804	39	19.5967	-0.000128667
2	1	0	0	1	156.549	-0.834536	-0.834453	0.149259	2	-0.0645195	39	19.9967	-0.00012455
2	1	0	1	1	156.949	-0.830537	-0.830443	0.144408	2	-0.0644603	39	20.3965	-0.000119923
2	1	0	1	1	157.349	-0.826537	-0.826455	0.13974	2	-0.0644031	39	20.7965	-0.000115489
2	1	0	1	1	157.749	-0.822538	-0.82245	0.13495	2	-0.0643478	39	21.1965	-0.000110989
2	1	0	0	1	158.149	-0.818539	-0.818467	0.131537	2	-0.0642943	39	21.5963	-0.000107658
2	1	0	0	1	158.549	-0.814539	-0.814467	0.125428	2	-0.0642425	39	21.9963	-0.000102157
2	1	0	0	1	158.949	-0.81054	-0.810465	0.121408	2	-0.0641928	39	22.3963	-9.83966e-05
2	1	0	1	1	159.349	-0.806541	-0.806474	0.115742	2	-0.0641451	39	22.7961	-9.33428e-05
2	1	0	1	1	159.749	-0.802541	-0.802449	0.111242	2	-0.0640993	39	23.1961	-8.92659e-05
2	1	0	1	1	160.149	-0.798542	-0.798452	0.106096	2	-0.0640554	39	23.5961	-8.47125e-05
2	1	0	0	1	160.548	-0.794543	-0.794479	0.10122	2	-0.0640136	39	23.9959	-8.04167e-05
2	1	0	0	1	160.948	-0.790543	-0.790475	0.0973913	2	-0.0639734	39	24.3959	-7.69854e-05
2	1	0	0	1	161.348	-0.786544	-0.786459	0.0923234	2	-0.0639352	39	24.7959	-7.26086e-05
2	1	0	1	1	161.748	-0.782545	-0.782476	0.0880128	2	-0.0638988	39	25.1957	-6.88679e-05
2	1	0	1	1	162.148	-0.778545	-0.778457	0.0833746	2	-0.0638642	39	25.5957	-6.49035e-05
2	1	0	1	1	162.548	-0.774546	-0.774466	0.0793803	2	-0.0638313	39	25.9957	-6.14774e-05
2	1	0	0	1	162.948	-0.770547	-0.770475	0.0748358	2	-0.0638002	39	26.3955	-5.76591e-05
2	1	0	0	1	163.348	-0.766547	-0.76646	0.0709195	2	-0.0637707	39	26.7955	-5.4357e-05
2	1	0	0	1	163.748	-0.762548	-0.762495	0.066278	2	-0.063743	39	27.1955	-5.05367e-05
2	1	0	1	1	164.148	-0.758549	-0.758473	0.062793	2	-0.0637168	39	27.5953	-4.76268e-05
2	1	0	1	1	164.548	-0.754549	-0.754489	0.0587039	2	-0.0636921	39	27.9953	-4.42915e-05
2	1	0	1	1	164.948	-0.75055	-0.750481	0.0556052	2	-0.0636689	39	28.3953	-4.17307e-05
2	1	0	0	1	165.348	-0.746551	-0.746482	0.0521292	2	-0.063647	39	28.7951	-3.89135e-05
2	1	0	0	1	165.748	-0.742552	-0.742475	0.0489356	2	-0.0636264	39	29.1951	-3.63334e-05
2	1	0	1	1	166.147	-0.738553	-0.738498	0.0460531	2	-0.063607	39	29.595	-3.40101e-05
2	1	0	1	1	166.547	-0.734553	-0.734494	0.0435079	2	-0.0635887	39	29.9949	-3.19563e-05
2	1	0	1	1	166.947	-0.730554	-0.730472	0.0409527	2	-0.0635715	39	30.3949	-2.99148e-05
2	1	0	1	1	167.347	-0.726555	-0.726508	0.0384299	2	-0.0635552	39	30.7948	-2.79196e-05
2	1	0	0	1	167.747	-0.722555	-0.722485	0.0361146	2	-0.0635399	39	31.1947	-2.60922e-05
2	1	0	0	1	168.147	-0.718556	-0.718513	0.0339909	2	-0.0635255	39	31.5947	-2.44229e-05
2	1	0	1	1	168.547	-0.714556	-0.714487	0.0322584	2	-0.0635119	39	31.9946	-2.30482e-05
2	1	0	1	1	168.947	-0.710557	-0.71048	0.0302709	2	-0.063499	39	32.3945	-2.15069e-05
2	1	0	1	1	169.347	-0.706558	-0.706493	0.0287836	2	-0.0634868	39	32.7945	-2.03354e-05
2	1	0	1	1	169.747	-0.702558	-0.702478	0.0273776	2	-0.0634751	39	33.1944	-1.92321e-05
2	1	0	0	1	170.147	-0.698559	-0.698482	0.0259277	2	-0.0634641	39	33.5943	-1.811e-05
2	1	0	0	1	170.547	-0.69456	-0.694487	0.0247883	2	-0.0634536	39	33.9943	-1.72152e-05
2	1	0	1	1	170.947	-0.69056	-0.690489	0.0237064	2	-0.0634435	39	34.3942	-1.6369e-05
2	1	0	1	1	171.347	-0.686561	-0.686465	0.022536	2	-0.0634339	39	34.7941	-1.54702e-05
2	1	0	1	1	171.747	-0.682562	-0.682488	0.0215881	2	-0.0634248	39	35.1941	-1.47337e-05
2	1	0	1	1	172.146	-0.678562	-0.678491	0.0208259	2	-0.063416	39	35.594	-1.41302e-05
2	1	0	0	1	172.546	-0.674563	-0.674493	0.0199162	2	-0.0634075	39	35.9939	-1.34334e-05
2	1	0	0	1	172.946	-0.670564	-0.670477	0.0193667	2	-0.0633993	39	36.3939	-1.29849e-05
2	1	0	1	1	173.346	-0.666565	-0.666474	0.0184324	2	-0.0633915	39	36.7937	-1.22847e-05
2	1	0	1	1	173.746	-0.662565	-0.662464	0.0176015	2	-0.063384	39	37.1937	-1.16604e-05
2	1	0	1	1	174.146	-0.658566	-0.658503	0.0170057	2	-0.0633767	39	37.5937	-1.11983e-05
2	1	0	0	1	174.546	-0.654566	-0.654479	0.0163546	2	-0.0633697	39	37.9935	-1.07038e-05
2	1	0	0	1	174.946	-0.650567	-0.650492	0.0157959	2	-0.0633629	39	38.3935	-1.02751e-05
2	1	0	0	1	175.346	-0.646568	-0.646479	0.0151409	2	-0.0633563	39	38.7935	-9.78826e-06
2	1	0	1	1	175.746	-0.642568	-0.642502	0.0146407	2	-0.06335	39	39.1933	-9.40666e-06
2	1	0	1	1	176.146	-0.638569	-0.638494	0.0140336	2	-0.0633439	39	39.5933	-8.96035e-06
2	1	0	1	1	176.546	-0.63457	-0.634497	0.0138021	2	-0.063338	39	39.9933	-8.7574e-06
2	1	0	0	1	176.946	-0.63057	-0.630509	0.0133103	2	-0.0633322	39	40.3931	-8.39225e-06
2	1	0	0	1	177.346	-0.626571	-0.626485	0.0127926	2	-0.0633266	39	40.7931	-8.01435e-06
2	1	0	0	1	177.746	-0.622572	-0.622473	0.0123688	2	-0.0633212	39	41.1931	-7.69925e-06
2	1	0	1	1	178.145	-0.618572	-0.618466	0.0120053	2	-0.063316	39	41.5929	-7.42489e-06
2	1	0	1	1	178.545	-0.614573	-0.614492	0.0116251	2	-0.0633109	39	41.9929	-7.14354e-06
2	1	0	1	1	178.945	-0.610574	-0.610472	0.0112066	2	-0.0633059	39	42.3929	-6.84129e-06
2	1	0	0	1	179.345	-0.606574	-0.606475	0.0109964	2	-0.0633011	39	42.7927	-6.66904e-06
2	1	0	0	1	179.745	-0.602575	-0.602494	0.0106545	2	-0.0632964	39	43.1927	-6.41927e-06
2	1	0	0	1	180.145	-0.598576	-0.598453	0.0104268	2	-0.0632918	39	43.5927	-6.23998e-06
2	1	0	1	1	180.545	-0.594576	-0.594472	0.0100081	2	-0.0632874	39	43.9925	-5.94957e-06
2	1	0	1	1	180.945	-0.590577	-0.590479	0.00989931	2	-0.063283	39	44.3925	-5.84533e-06
2	1	0	1	1	181.345	-0.586578	-0.586494	0.00971167	2	-0.0632787	39	44.7925	-5.69584e-06
2	1	0	0	1	181.745	-0.582578	-0.582497	0.00963112	2	-0.0632745	39	45.1923	-5.6101e-06
2	1	0	0	1	182.145	-0.578579	-0.578506	0.00953535	2	-0.0632703	39	45.5923	-5.51626e-06
2	1	0	0	1	182.545	-0.57458	-0.574495	0.00919447	2	-0.0632662	39	45.9923	-5.28218e-06
2	1	0	1	1	182.945	-0.570581	-0.570501	0.00905412	2	-0.0632622	39	46.3921	-5.16539e-06
2	1	0	1	1	183.345	-0.566581	-0.566492	0.00904819	2	-0.0632582	39	46.7921	-5.12573e-06
2	1	0	1	1	183.745	-0.562582	-0.562506	0.00875687	2	-0.0632543	39	47.1921	-4.92579e-06
2	1	0	0	1	184.144	-0.558583	-0.558513	0.00878968	2	-0.0632504	39	47.5919	-4.90915e-06
2	1	0	0	1	184.544	-0.554583	-0.554503	0.00864448	2	-0.0632466	39	47.9919	-4.79339e-06
2	1	0	0	1	184.944	-0.550584	-0.550509	0.00857653	2	-0.0632428	39	48.3919	-4.72146e-06
2	1	0	1	1	185.344	-0.546585	-0.546493	0.00851771	2	-0.0632391	39	48.7917	-4.65487e-06
2	1	0	1	1	185.744	-0.542585	-0.542505	0.00842029	2	-0.0632354	39	49.1917	-4.56805e-06
2	1	0	1	1	186.144	-0.538586	-0.538489	0.00832362	2	-0.0632317	39	49.5917	-4.48218e-06
2	1	0	0	1	186.544	-0.534587	-0.534506	0.00823842	2	-0.0632281	39	49.9915	-4.40349e-06
2	1	0	0	1	186.944	-0.530587	-0.530516	0.00832946	2	-0.0632244	39	50.3915	-4.41891e-06
2	1	0	0	1	187.344	-0.526588	-0.526519	0.008173	2	-0.0632208	39	50.7915	-4.30324e-06
2	1	0	1	1	187.744	-0.522589	-0.52251	0.00806911	2	-0.0632173	39	51.1913	-4.21619e-06
2	1	0	1	1	188.144	-0.518589	-0.518508	0.00784914	2	-0.0632138	39	51.5913	-4.06984e-06
2	1	0	1	1	188.544	-0.51459	-0.514505	0.0079023	2	-0.0632103	39	51.9913	-4.06577e-06
2	1	0	0	1	188.944	-0.510591	-0.510518	0.00807608	2	-0.0632068	39	52.3911	-4.12298e-06
2	1	0	0	1	189.344	-0.506591	-0.50649	0.00793816	2	-0.0632033	39	52.7911	-4.0206e-06
2	1	0	0	1	189.744	-0.502592	-0.502518	0.00788811	2	-0.0631998	39	53.1911	-3.96392e-06
2	1	0	1	1	190.143	-0.498593	-0.498521	0.00774348	2	-0.0631963	39	53.5909	-3.86029e-06
2	1	0	1	1	190.543	-0.494593	-0.494495	0.00784222	2	-0.0631928	39	53.9909	-3.87794e-06
2	1	0	1	1	190.943	-0.490594	-0.490503	0.00793817	2	-0.0631894	39	54.3909	-3.89369e-06
2	1	0	0	1	191.343	-0.486595	-0.486508	0.00771485	2	-0.0631859	39	54.7907	-3.75334e-06
2	1	0	0	1	191.743	-0.482595	-0.482543	0.00798794	2	-0.0631825	39	55.1907	-3.85453e-06
2	1	0	0	1	192.143	-0.478596	-0.478525	0.00793901	2	-0.0631791	39	55.5907	-3.79901e-06
2	1	0	1	1	192.543	-0.474597	-0.474551	0.00750519	2	-0.0631757	39	55.9905	-3.56159e-06
2	1	0	1	1	192.943	-0.470597	-0.470525	0.00760167	2	-0.0631723	39	56.3905	-3.57677e-06
2	1	0	1	1	193.343	-0.466598	-0.466533	0.0077724	2	-0.063169	39	56.7905	-3.62609e-06
2	1	0	0	1	193.743	-0.462599	-0.462551	0.00773864	2	-0.0631656	39	57.1903	-3.57952e-06
2	1	0	0	1	194.143	-0.458599	-0.458526	0.0078302	2	-0.0631622	39	57.5903	-3.59035e-06
2	1	0	0	1	194.543	-0.4546	-0.454528	0.00767548	2	-0.0631589	39	57.9903	-3.48872e-06
2	1	0	1	1	194.943	-0.450601	-0.450539	0.00771436	2	-0.0631555	39	58.3901	-3.47562e-06
2	1	0	1	1	195.343	-0.446601	-0.446528	0.00770501	2	-0.0631522	39	58.7901	-3.4405e-06
2	1	0	1	1	195.743	-0.442602	-0.442521	0.00771488	2	-0.0631488	39	59.1901	-3.414e-06
2	1	0	0	1	196.142	-0.438603	-0.438528	0.00760091	2	-0.0631455	39	59.5899	-3.33321e-06
2	1	0	0	1	196.542	-0.434603	-0.434525	0.00771442	2	-0.0631422	39	59.9899	-3.3521e-06
2	1	0	0	1	196.942	-0.430604	-0.430547	0.00777293	2	-0.0631388	39	60.3899	-3.34661e-06
2	1	0	1	1	197.342	-0.426605	-0.426536	0.00770368	2	-0.0631354	39	60.7897	-3.2859e-06
2	1	0	1	1	197.742	-0.422605	-0.422548	0.00768786	2	-0.063132	39	61.1897	-3.24849e-06
2	1	0	1	1	198.142	-0.418606	-0.418534	0.00774652	2	-0.0631287	39	61.5897	-3.24218e-06
2	1	0	0	1	198.542	-0.414607	-0.414553	0.00794949	2	-0.0631252	39	61.9895	-3.29549e-06
2	1	0	0	1	198.942	-0.410607	-0.410541	0.00794257	2	-0.0631218	39	62.3895	-3.26075e-06
2	1	0	0	1	199.342	-0.406608	-0.406515	0.0078743	2	-0.0631183	39	62.7895	-3.20102e-06
2	1	0	1	1	199.742	-0.402609	-0.402528	0.00790292	2	-0.0631149	39	63.1893	-3.18115e-06
2	1	0	1	1	200.142	-0.39861	-0.398507	0.00790906	2	-0.0631115	39	63.5893	-3.15181e-06
2	1	0	1	1	200.542	-0.394611	-0.394514	0.0080257	2	-0.063108	39	63.9892	-3.16625e-06
2	1	0	0	1	200.942	-0.390611	-0.390529	0.00802218	2	-0.0631046	39	64.3891	-3.13289e-06
2	1	0	0	1	201.342	-0.386612	-0.386518	0.00796684	2	-0.0631012	39	64.7891	-3.07932e-06
2	1	0	1	1	201.741	-0.382613	-0.382507	0.00797511	2	-0.0630977	39	65.189	-3.05053e-06
2	1	0	1	1	202.141	-0.378613	-0.378523	0.00810827	2	-0.0630943	39	65.5889	-3.06917e-06
2	1	0	1	1	202.541	-0.374614	-0.374523	0.00814589	2	-0.0630908	39	65.9889	-3.05082e-06
2	1	0	1	1	202.941	-0.370614	-0.370532	0.008164	2	-0.0630873	39	66.3888	-3.02503e-06
2	1	0	0	1	203.341	-0.366615	-0.366513	0.0083181	2	-0.0630837	39	66.7887	-3.04869e-06
2	1	0	0	1	203.741	-0.362616	-0.362493	0.0080998	2	-0.0630802	39	67.1887	-2.93612e-06
2	1	0	1	1	204.141	-0.358616	-0.358518	0.00829546	2	-0.0630766	39	67.5886	-2.97407e-06
2	1	0	1	1	204.541	-0.354617	-0.354512	0.00826068	2	-0.0630731	39	67.9885	-2.92851e-06
2	1	0	1	1	204.941	-0.350618	-0.350534	0.00836605	2	-0.0630695	39	68.3885	-2.93259e-06
2	1	0	1	1	205.341	-0.346618	-0.346534	0.00841933	2	-0.0630659	39	68.7884	-2.91759e-06
2	1	0	0	1	205.741	-0.342619	-0.342517	0.00827289	2	-0.0630623	39	69.1883	-2.83361e-06
2	1	0	0	1	206.141	-0.33862	-0.338535	0.00845951	2	-0.0630587	39	69.5883	-2.86384e-06
2	1	0	1	1	206.541	-0.334619	-0.334521	0.0083465	2	-0.0630551	39	69.9882	-2.79208e-06
2	1	0	1	1	206.941	-0.330621	-0.330552	0.00836816	2	-0.0630515	39	70.3881	-2.76611e-06
2	1	0	1	1	207.341	-0.326622	-0.32654	0.00847071	2	-0.0630478	39	70.7881	-2.76603e-06
2	1	0	1	1	207.74	-0.322621	-0.322551	0.00858739	2	-0.0630442	39	71.188	-2.76987e-06
2	1	0	0	1	208.14	-0.318623	-0.318541	0.00857418	2	-0.0630405	39	71.5879	-2.73122e-06
2	1	0	0	1	208.54	-0.314624	-0.31453	0.00869866	2	-0.0630368	39	71.9879	-2.73599e-06
2	1	0	1	1	208.94	-0.310624	-0.31056	0.00874396	2	-0.0630331	39	72.3877	-2.71552e-06
2	1	0	1	1	209.34	-0.306625	-0.30656	0.00862907	2	-0.0630294	39	72.7877	-2.64533e-06
2	1	0	1	1	209.74	-0.302626	-0.302549	0.00868924	2	-0.0630257	39	73.1877	-2.62892e-06
2	1	0	1	1	210.006	-0.299976	-0.299852	0.0102916	2	-0.0630232	39	73.4531	-3.08597e-06
2	1	0	1	1	210.361	-0.303526	-0.303463	0.00773141	2	-0.0630205	39	73.8081	-2.34619e-06
2	1	0	1	1	210.761	-0.307525	-0.307447	0.00743648	2	-0.0630178	39	74.2081	-2.28632e-06
2	1	0	1	1	211.16	-0.311525	-0.311474	0.00676333	2	-0.0630152	39	74.608	-2.1066e-06
2	1	0	0	1	211.56	-0.315524	-0.315452	0.00668435	2	-0.0630128	39	75.0079	-2.10859e-06
2	1	0	0	1	211.96	-0.319523	-0.319468	0.00637406	2	-0.0630105	39	75.4079	-2.03631e-06
2	1	0	1	1	212.36	-0.323522	-0.323463	0.00589301	2	-0.0630083	39	75.8077	-1.90617e-06
2	1	0	1	1	212.76	-0.327522	-0.327478	0.00570873	2	-0.0630062	39	76.2077	-1.86948e-06
2	1	0	1	1	213.16	-0.331521	-0.331483	0.00562577	2	-0.0630042	39	76.6077	-1.86485e-06
2	1	0	0	1	213.56	-0.33552	-0.335466	0.00543594	2	-0.0630023	39	77.0075	-1.82357e-06
2	1	0	0	1	213.96	-0.339519	-0.33946	0.00522733	2	-0.0630004	39	77.4075	-1.77447e-06
2	1	0	0	1	214.36	-0.343519	-0.343448	0.00501409	2	-0.0629986	39	77.8075	-1.72208e-06
2	1	0	1	1	214.76	-0.347518	-0.347456	0.00481282	2	-0.0629969	39	78.2073	-1.67225e-06
2	1	0	1	1	215.16	-0.351517	-0.351452	0.0046826	2	-0.0629952	39	78.6073	-1.64571e-06
2	1	0	1	1	215.56	-0.355517	-0.355441	0.00453528	2	-0.0629936	39	79.0073	-1.61203e-06
2	1	0	0	1	215.96	-0.359516	-0.359453	0.00433612	2	-0.0629921	39	79.4071	-1.55863e-06
2	1	0	0	1	216.36	-0.363515	-0.363456	0.00423915	2	-0.0629906	39	79.8071	-1.54074e-06
2	1	0	0	1	216.76	-0.367515	-0.36744	0.00407658	2	-0.0629892	39	80.2071	-1.4979e-06
2	1	0	1	1	217.159	-0.371514	-0.371436	0.00399266	2	-0.0629877	39	80.6069	-1.48301e-06
2	1	0	1	1	217.559	-0.375513	-0.375446	0.00375588	2	-0.0629864	39	81.0069	-1.41013e-06
2	1	0	1	1	217.959	-0.379513	-0.379427	0.00375777	2	-0.0629851	39	81.4069	-1.4258e-06
2	1	0	0	1	218.359	-0.383512	-0.383426	0.0036185	2	-0.0629838	39	81.8067	-1.38743e-06
2	1	0	0	1	218.759	-0.387511	-0.38743	0.00352552	2	-0.0629826	39	82.2067	-1.36589e-06
2	1	0	0	1	219.159	-0.391511	-0.391442	0.00339956	2	-0.0629815	39	82.6067	-1.33073e-06
2	1	0	1	1	219.559	-0.39551	-0.395442	0.00335476	2	-0.0629804	39	83.0065	-1.32661e-06
2	1	0	1	1	219.959	-0.399509	-0.399437	0.00320964	2	-0.0629793	39	83.4065	-1.28205e-06
2	1	0	1	1	220.359	-0.403509	-0.403447	0.0032323	2	-0.0629782	39	83.8065	-1.30406e-06
2	1	0	0	1	220.759	-0.407508	-0.407428	0.00314609	2	-0.0629771	39	84.2063	-1.2818e-06
2	1	0	0	1	221.159	-0.411507	-0.411461	0.00317509	2	-0.0629761	39	84.6063	-1.30643e-06
2	1	0	0	1	221.559	-0.415507	-0.415453	0.00311007	2	-0.0629751	39	85.0063	-1.29209e-06
2	1	0	1	1	221.959	-0.419506	-0.419428	0.00304961	2	-0.0629742	39	85.4061	-1.27909e-06
2	1	0	1	1	222.359	-0.423505	-0.423446	0.00302416	2	-0.0629732	39	85.8061	-1.28057e-06
2	1	0	1	1	222.759	-0.427505	-0.427437	0.0028763	2	-0.0629724	39	86.2061	-1.22944e-06
2	1	0	0	1	223.158	-0.431504	-0.431423	0.00275619	2	-0.0629715	39	86.6059	-1.18908e-06
2	1	0	0	1	223.558	-0.435503	-0.435427	0.00260635	2	-0.0629707	39	87.0059	-1.13488e-06
2	1	0	0	1	223.958	-0.439503	-0.439442	0.00251468	2	-0.0629699	39	87.4059	-1.10506e-06
2	1	0	1	1	224.358	-0.443502	-0.443438	0.00247041	2	-0.0629691	39	87.8057	-1.09547e-06
2	1	0	1	1	224.758	-0.447501	-0.447441	0.00252619	2	-0.0629684	39	88.2057	-1.13032e-06
2	1	0	1	1	225.158	-0.451501	-0.451452	0.00241324	2	-0.0629677	39	88.6057	-1.08946e-06
2	1	0	0	1	225.558	-0.4555	-0.455453	0.00241404	2	-0.062967	39	89.0055	-1.09948e-06
2	1	0	0	1	225.958	-0.459499	-0.459446	0.0023028	2	-0.0629663	39	89.4055	-1.05801e-06
2	1	0	0	1	226.358	-0.463499	-0.463439	0.00218342	2	-0.0629657	39	89.8055	-1.01188e-06
2	1	0	1	1	226.758	-0.467498	-0.46742	0.00224209	2	-0.062965	39	90.2053	-1.048e-06
2	1	0	1	1	227.158	-0.471497	-0.471423	0.00213937	2	-0.0629644	39	90.6053	-1.00855e-06
2	1	0	1	1	227.558	-0.475497	-0.475427	0.0022297	2	-0.0629638	39	91.0053	-1.06006e-06
2	1	0	0	1	227.958	-0.479496	-0.479437	0.00205052	2	-0.0629632	39	91.4051	-9.83095e-07
2	1	0	0	1	228.358	-0.483495	-0.483433	0.00211881	2	-0.0629627	39	91.8051	-1.0243e-06
2	1	0	0	1	228.758	-0.487494	-0.487422	0.00185905	2	-0.0629622	39	92.2051	-9.06141e-07
2	1	0	1	1	229.157	-0.491494	-0.491438	0.00186892	2	-0.0629617	39	92.6049	-9.18459e-07
2	1	0	1	1	229.557	-0.495493	-0.495403	0.00195827	2	-0.0629612	39	93.0049	-9.70136e-07
2	1	0	1	1	229.607	-0.496043	-0.495997	-0.00128331	2	-0.0629611	39	93.0543	6.36519e-07