File: Fig 3/Fig 3_RRDE_np-Fe2O3_5mvs_ring_1.mpt
mode	ox/red	error	control changes	Ns changes	counter inc.	Ns	time/s	control/V	Ewe/V	<I>/mA	dQ/C	(Q-Qo)/C	I Range	Q charge/discharge/mA.h	half cycle	Energy charge/W.h	Energy discharge/W.h	Capacitance charge/µF	Capacitance discharge/µF	step time/s	Q discharge/mA.h	Q charge/mA.h	Capacity/mA.h	Efficiency/%	cycle number	P/W
2	1	1	0	0	0	0	0.1	-0.300043	-0.299896	-0.0881237	-8.81237e-06	-8.81237e-06	52	-2.44788e-06	0	0.000000000000000E+000	7.3411e-10	0.000000000000000E+000	0.000000000000000E+000	0.1	2.44788e-06	0.000000000000000E+000	2.44788e-06	0.0000000E+000	0.000000000000000E+000	2.6428e-05
2	0	0	0	0	0	0	2.2	-0.300043	-0.300026	-0.00780856	-3.37044e-05	-3.37044e-05	52	-9.36232e-06	0	0.000000000000000E+000	2.80837e-09	0.000000000000000E+000	259507	2.2	9.36232e-06	0.000000000000000E+000	9.36232e-06	0.0000000E+000	0.000000000000000E+000	2.34277e-06
2	0	0	0	0	0	0	4.3	-0.300043	-0.299904	-0.00477482	-4.6279e-05	-4.6279e-05	52	-1.28553e-05	0	0.000000000000000E+000	3.8561e-09	0.000000000000000E+000	6.06588e+06	4.3	1.28553e-05	0.000000000000000E+000	1.28553e-05	0.0000000E+000	0.000000000000000E+000	1.43198e-06
2	0	0	0	0	0	0	6.4	-0.300043	-0.299915	-0.00338331	-5.46163e-05	-5.46163e-05	52	-1.51712e-05	0	0.000000000000000E+000	4.55075e-09	0.000000000000000E+000	2.859e+06	6.4	1.51712e-05	0.000000000000000E+000	1.51712e-05	0.0000000E+000	0.000000000000000E+000	1.01471e-06
2	0	0	0	0	0	0	8.5	-0.300043	-0.299904	-0.00265776	-6.08411e-05	-6.08411e-05	52	-1.69003e-05	0	0.000000000000000E+000	5.06934e-09	0.000000000000000E+000	7.94353e+06	8.5	1.69003e-05	0.000000000000000E+000	1.69003e-05	0.0000000E+000	0.000000000000000E+000	7.97072e-07
2	0	0	0	0	0	0	10.6	-0.300043	-0.299942	-0.00221758	-6.58905e-05	-6.58905e-05	52	-1.83029e-05	0	0.000000000000000E+000	5.49002e-09	0.000000000000000E+000	1.43753e+06	10.6	1.83029e-05	0.000000000000000E+000	1.83029e-05	0.0000000E+000	0.000000000000000E+000	6.65144e-07
2	0	0	0	0	0	0	12.7	-0.300043	-0.299972	-0.00194144	-7.02286e-05	-7.02286e-05	52	-1.95079e-05	0	0.000000000000000E+000	5.85147e-09	0.000000000000000E+000	919064	12.7	1.95079e-05	0.000000000000000E+000	1.95079e-05	0.0000000E+000	0.000000000000000E+000	5.82379e-07
2	0	0	0	0	0	0	14.8	-0.300043	-0.299953	-0.0017579	-7.40978e-05	-7.40978e-05	52	-2.05827e-05	0	0.000000000000000E+000	6.17384e-09	0.000000000000000E+000	1.29293e+06	14.8	2.05827e-05	0.000000000000000E+000	2.05827e-05	0.0000000E+000	0.000000000000000E+000	5.27289e-07
2	0	0	0	0	0	0	16.9	-0.300043	-0.299915	-0.00162543	-7.76419e-05	-7.76419e-05	52	-2.15672e-05	0	0.000000000000000E+000	6.46912e-09	0.000000000000000E+000	4.06432e+06	16.9	2.15672e-05	0.000000000000000E+000	2.15672e-05	0.0000000E+000	0.000000000000000E+000	4.8749e-07
2	0	0	0	0	0	0	19	-0.300043	-0.299839	-0.00151728	-8.09341e-05	-8.09341e-05	52	-2.24817e-05	0	0.000000000000000E+000	6.74341e-09	0.000000000000000E+000	1.41222e+06	19	2.24817e-05	0.000000000000000E+000	2.24817e-05	0.0000000E+000	0.000000000000000E+000	4.5494e-07
2	0	0	0	0	0	0	21.1	-0.300043	-0.299942	-0.00143697	-8.403e-05	-8.403e-05	52	-2.33417e-05	0	0.000000000000000E+000	7.00134e-09	0.000000000000000E+000	1.83328e+06	21.1	2.33417e-05	0.000000000000000E+000	2.33417e-05	0.0000000E+000	0.000000000000000E+000	4.31008e-07
2	0	0	0	0	0	0	23.2	-0.300043	-0.299934	-0.00136259	-8.69667e-05	-8.69667e-05	52	-2.41574e-05	0	0.000000000000000E+000	7.24601e-09	0.000000000000000E+000	2.27622e+06	23.2	2.41574e-05	0.000000000000000E+000	2.41574e-05	0.0000000E+000	0.000000000000000E+000	4.08688e-07
2	0	0	0	0	0	0	25.3	-0.300043	-0.29993	-0.00131264	-8.97726e-05	-8.97726e-05	52	-2.49368e-05	0	0.000000000000000E+000	7.47977e-09	0.000000000000000E+000	2.61029e+06	25.3	2.49368e-05	0.000000000000000E+000	2.49368e-05	0.0000000E+000	0.000000000000000E+000	3.937e-07
2	0	0	0	0	0	0	27.4	-0.300043	-0.299892	-0.00126219	-9.24668e-05	-9.24668e-05	52	-2.56852e-05	0	0.000000000000000E+000	7.70424e-09	0.000000000000000E+000	2.42396e+07	27.4	2.56852e-05	0.000000000000000E+000	2.56852e-05	0.0000000E+000	0.000000000000000E+000	3.7852e-07
2	0	0	0	0	0	0	29.5	-0.300043	-0.299969	-0.0012197	-9.50679e-05	-9.50679e-05	52	-2.64078e-05	0	0.000000000000000E+000	7.92095e-09	0.000000000000000E+000	1.3095e+06	29.5	2.64078e-05	0.000000000000000E+000	2.64078e-05	0.0000000E+000	0.000000000000000E+000	3.65872e-07
2	0	0	0	0	0	0	31.6	-0.300043	-0.299904	-0.0011774	-9.75793e-05	-9.75793e-05	52	-2.71053e-05	0	0.000000000000000E+000	8.13017e-09	0.000000000000000E+000	1.27899e+07	31.6	2.71053e-05	0.000000000000000E+000	2.71053e-05	0.0000000E+000	0.000000000000000E+000	3.53106e-07
2	0	0	0	0	0	0	33.7	-0.300043	-0.299938	-0.00114543	-0.000100017	-0.000100017	52	-2.77825e-05	0	0.000000000000000E+000	8.33327e-09	0.000000000000000E+000	2.38015e+06	33.7	2.77825e-05	0.000000000000000E+000	2.77825e-05	0.0000000E+000	0.000000000000000E+000	3.43559e-07
2	0	0	0	0	0	0	35.8	-0.300043	-0.299835	-0.00111453	-0.000102387	-0.000102387	52	-2.84408e-05	0	0.000000000000000E+000	8.5307e-09	0.000000000000000E+000	1.67505e+06	35.8	2.84408e-05	0.000000000000000E+000	2.84408e-05	0.0000000E+000	0.000000000000000E+000	3.34176e-07
2	0	0	0	0	0	0	37.9	-0.300043	-0.299915	-0.00108419	-0.000104698	-0.000104698	52	-2.90827e-05	0	0.000000000000000E+000	8.72324e-09	0.000000000000000E+000	5.48062e+06	37.9	2.90827e-05	0.000000000000000E+000	2.90827e-05	0.0000000E+000	0.000000000000000E+000	3.25166e-07
2	0	0	0	0	0	0	40	-0.300043	-0.299839	-0.00106261	-0.000106951	-0.000106951	52	-2.97085e-05	0	0.000000000000000E+000	8.91093e-09	0.000000000000000E+000	1.86618e+06	40	2.97085e-05	0.000000000000000E+000	2.97085e-05	0.0000000E+000	0.000000000000000E+000	3.18611e-07
2	0	0	0	0	0	0	42.1	-0.300043	-0.299984	-0.00103844	-0.000109158	-0.000109158	52	-3.03218e-05	0	0.000000000000000E+000	9.09486e-09	0.000000000000000E+000	1.24245e+06	42.1	3.03218e-05	0.000000000000000E+000	3.03218e-05	0.0000000E+000	0.000000000000000E+000	3.11516e-07
2	0	0	0	0	0	0	44.2	-0.300043	-0.299927	-0.00101335	-0.00011132	-0.00011132	52	-3.09221e-05	0	0.000000000000000E+000	9.27493e-09	0.000000000000000E+000	3.64416e+06	44.2	3.09221e-05	0.000000000000000E+000	3.09221e-05	0.0000000E+000	0.000000000000000E+000	3.03929e-07
2	0	0	0	0	0	0	46.3	-0.300043	-0.299942	-0.00100506	-0.000113441	-0.000113441	52	-3.15113e-05	0	0.000000000000000E+000	9.45166e-09	0.000000000000000E+000	2.47493e+06	46.3	3.15113e-05	0.000000000000000E+000	3.15113e-05	0.0000000E+000	0.000000000000000E+000	3.01459e-07
2	0	0	0	0	0	0	48.4	-0.300043	-0.299911	-0.00101155	-0.000115527	-0.000115527	52	-3.20909e-05	0	0.000000000000000E+000	9.62548e-09	0.000000000000000E+000	7.55642e+06	48.4	3.20909e-05	0.000000000000000E+000	3.20909e-05	0.0000000E+000	0.000000000000000E+000	3.03375e-07
2	0	0	0	0	0	0	50.5	-0.300043	-0.299999	-0.000964369	-0.000117576	-0.000117576	52	-3.26599e-05	0	0.000000000000000E+000	9.79613e-09	0.000000000000000E+000	1.1399e+06	50.5	3.26599e-05	0.000000000000000E+000	3.26599e-05	0.0000000E+000	0.000000000000000E+000	2.8931e-07
2	0	0	0	0	0	0	52.6	-0.300043	-0.299953	-0.000954566	-0.000119594	-0.000119594	52	-3.32206e-05	0	0.000000000000000E+000	9.96431e-09	0.000000000000000E+000	2.0868e+06	52.6	3.32206e-05	0.000000000000000E+000	3.32206e-05	0.0000000E+000	0.000000000000000E+000	2.86325e-07
2	0	0	0	0	0	0	54.7	-0.300043	-0.299934	-0.000932038	-0.00012158	-0.00012158	52	-3.37722e-05	0	0.000000000000000E+000	1.01298e-08	0.000000000000000E+000	3.18217e+06	54.7	3.37722e-05	0.000000000000000E+000	3.37722e-05	0.0000000E+000	0.000000000000000E+000	2.7955e-07
2	0	0	0	0	0	0	56.8	-0.300043	-0.299984	-0.000934323	-0.000123539	-0.000123539	52	-3.43163e-05	0	0.000000000000000E+000	1.02929e-08	0.000000000000000E+000	1.40613e+06	56.8	3.43163e-05	0.000000000000000E+000	3.43163e-05	0.0000000E+000	0.000000000000000E+000	2.80282e-07
2	0	0	0	0	0	0	58.9	-0.300043	-0.299938	-0.000913344	-0.000125469	-0.000125469	52	-3.48526e-05	0	0.000000000000000E+000	1.04538e-08	0.000000000000000E+000	2.98585e+06	58.9	3.48526e-05	0.000000000000000E+000	3.48526e-05	0.0000000E+000	0.000000000000000E+000	2.73947e-07
2	0	0	0	0	0	0	61	-0.300043	-0.299923	-0.00090537	-0.000127376	-0.000127376	52	-3.53823e-05	0	0.000000000000000E+000	1.06127e-08	0.000000000000000E+000	4.75951e+06	61	3.53823e-05	0.000000000000000E+000	3.53823e-05	0.0000000E+000	0.000000000000000E+000	2.71541e-07
2	0	0	0	0	0	0	63.1	-0.300043	-0.299873	-0.000889823	-0.000129262	-0.000129262	52	-3.59061e-05	0	0.000000000000000E+000	1.07698e-08	0.000000000000000E+000	5.6402e+06	63.1	3.59061e-05	0.000000000000000E+000	3.59061e-05	0.0000000E+000	0.000000000000000E+000	2.66834e-07
2	0	0	0	0	0	0	65.2	-0.300043	-0.299946	-0.000882111	-0.000131124	-0.000131124	52	-3.64233e-05	0	0.000000000000000E+000	1.09249e-08	0.000000000000000E+000	2.64093e+06	65.2	3.64233e-05	0.000000000000000E+000	3.64233e-05	0.0000000E+000	0.000000000000000E+000	2.64585e-07
2	0	0	0	0	0	0	67.3	-0.300043	-0.299896	-0.000870375	-0.000132966	-0.000132966	52	-3.69351e-05	0	0.000000000000000E+000	1.10784e-08	0.000000000000000E+000	0.000000000000000E+000	67.3	3.69351e-05	0.000000000000000E+000	3.69351e-05	0.0000000E+000	0.000000000000000E+000	2.61022e-07
2	0	0	0	0	0	0	69.4	-0.300043	-0.299881	-0.000869823	-0.000134788	-0.000134788	52	-3.74411e-05	0	0.000000000000000E+000	1.12301e-08	0.000000000000000E+000	8.81624e+06	69.4	3.74411e-05	0.000000000000000E+000	3.74411e-05	0.0000000E+000	0.000000000000000E+000	2.60843e-07
2	1	0	0	0	0	0	71.5	-0.300043	-0.299961	-0.000855209	-0.000136586	-0.000136586	52	-3.79407e-05	0	0.000000000000000E+000	1.138e-08	0.000000000000000E+000	2.10329e+06	71.5	3.79407e-05	0.000000000000000E+000	3.79407e-05	0.0000000E+000	0.000000000000000E+000	2.56529e-07
2	1	0	0	0	0	0	73.6	-0.300043	-0.299908	-0.000838616	-0.000138365	-0.000138365	52	-3.84347e-05	0	0.000000000000000E+000	1.15281e-08	0.000000000000000E+000	1.20591e+07	73.6	3.84347e-05	0.000000000000000E+000	3.84347e-05	0.0000000E+000	0.000000000000000E+000	2.51507e-07
2	0	0	0	0	0	0	75.7	-0.300043	-0.299938	-0.000829225	-0.000140125	-0.000140125	52	-3.89235e-05	0	0.000000000000000E+000	1.16747e-08	0.000000000000000E+000	3.33461e+06	75.7	3.89235e-05	0.000000000000000E+000	3.89235e-05	0.0000000E+000	0.000000000000000E+000	2.48716e-07
2	0	0	0	0	0	0	77.8	-0.300043	-0.299927	-0.000815603	-0.000141864	-0.000141864	52	-3.94066e-05	0	0.000000000000000E+000	1.18196e-08	0.000000000000000E+000	4.63953e+06	77.8	3.94066e-05	0.000000000000000E+000	3.94066e-05	0.0000000E+000	0.000000000000000E+000	2.44621e-07
2	0	0	0	0	0	0	79.9	-0.300043	-0.299934	-0.000810903	-0.000143581	-0.000143581	52	-3.98836e-05	0	0.000000000000000E+000	1.19627e-08	0.000000000000000E+000	3.76095e+06	79.9	3.98836e-05	0.000000000000000E+000	3.98836e-05	0.0000000E+000	0.000000000000000E+000	2.43218e-07
2	0	0	0	0	0	0	82	-0.300043	-0.299881	-0.000800513	-0.000145276	-0.000145276	52	-4.03544e-05	0	0.000000000000000E+000	1.21039e-08	0.000000000000000E+000	9.50223e+06	82	4.03544e-05	0.000000000000000E+000	4.03544e-05	0.0000000E+000	0.000000000000000E+000	2.40058e-07
2	0	0	0	0	0	0	84.1	-0.300043	-0.299927	-0.000798797	-0.000146951	-0.000146951	52	-4.08197e-05	0	0.000000000000000E+000	1.22435e-08	0.000000000000000E+000	4.81059e+06	84.1	4.08197e-05	0.000000000000000E+000	4.08197e-05	0.0000000E+000	0.000000000000000E+000	2.3958e-07
2	0	0	0	0	0	0	86.2	-0.300043	-0.299992	-0.0007857	-0.000148607	-0.000148607	52	-4.12796e-05	0	0.000000000000000E+000	1.23814e-08	0.000000000000000E+000	1.55582e+06	86.2	4.12796e-05	0.000000000000000E+000	4.12796e-05	0.0000000E+000	0.000000000000000E+000	2.35703e-07
2	0	0	0	0	0	0	88.3	-0.300043	-0.299957	-0.000771095	-0.000150239	-0.000150239	52	-4.17331e-05	0	0.000000000000000E+000	1.25174e-08	0.000000000000000E+000	2.45792e+06	88.3	4.17331e-05	0.000000000000000E+000	4.17331e-05	0.0000000E+000	0.000000000000000E+000	2.31296e-07
2	0	0	0	0	0	0	90.4	-0.300043	-0.299885	-0.000767814	-0.000151854	-0.000151854	52	-4.21817e-05	0	0.000000000000000E+000	1.2652e-08	0.000000000000000E+000	1.32347e+07	90.4	4.21817e-05	0.000000000000000E+000	4.21817e-05	0.0000000E+000	0.000000000000000E+000	2.30255e-07
2	0	0	0	0	0	0	92.5	-0.300043	-0.299927	-0.00075948	-0.000153452	-0.000153452	52	-4.26256e-05	0	0.000000000000000E+000	1.27851e-08	0.000000000000000E+000	5.02342e+06	92.5	4.26256e-05	0.000000000000000E+000	4.26256e-05	0.0000000E+000	0.000000000000000E+000	2.27788e-07
2	0	0	0	0	0	0	94.6	-0.300043	-0.299923	-0.000741385	-0.000155027	-0.000155027	52	-4.3063e-05	0	0.000000000000000E+000	1.29163e-08	0.000000000000000E+000	5.79914e+06	94.6	4.3063e-05	0.000000000000000E+000	4.3063e-05	0.0000000E+000	0.000000000000000E+000	2.22358e-07
2	0	0	0	0	0	0	96.7	-0.300043	-0.299896	-0.000727112	-0.000156583	-0.000156583	52	-4.34952e-05	0	0.000000000000000E+000	1.30459e-08	0.000000000000000E+000	0.000000000000000E+000	96.7	4.34952e-05	0.000000000000000E+000	4.34952e-05	0.0000000E+000	0.000000000000000E+000	2.18058e-07
2	0	0	0	0	0	0	98.8	-0.300043	-0.299942	-0.000735679	-0.000158119	-0.000158119	52	-4.39219e-05	0	0.000000000000000E+000	1.31739e-08	0.000000000000000E+000	3.44966e+06	98.8	4.39219e-05	0.000000000000000E+000	4.39219e-05	0.0000000E+000	0.000000000000000E+000	2.20661e-07
2	0	0	0	0	0	0	100.9	-0.300043	-0.299873	-0.000718009	-0.000159632	-0.000159632	52	-4.43423e-05	0	0.000000000000000E+000	1.33e-08	0.000000000000000E+000	6.96538e+06	100.9	4.43423e-05	0.000000000000000E+000	4.43423e-05	0.0000000E+000	0.000000000000000E+000	2.15312e-07
2	0	0	0	0	0	0	103	-0.300043	-0.299919	-0.000705789	-0.000161124	-0.000161124	52	-4.47566e-05	0	0.000000000000000E+000	1.34242e-08	0.000000000000000E+000	7.03045e+06	103	4.47566e-05	0.000000000000000E+000	4.47566e-05	0.0000000E+000	0.000000000000000E+000	2.11679e-07
2	0	0	0	0	0	0	105.1	-0.300043	-0.299923	-0.000694653	-0.000162592	-0.000162592	52	-4.51644e-05	0	0.000000000000000E+000	1.35465e-08	0.000000000000000E+000	6.08213e+06	105.1	4.51644e-05	0.000000000000000E+000	4.51644e-05	0.0000000E+000	0.000000000000000E+000	2.08342e-07
2	0	0	0	0	0	0	107.2	-0.300043	-0.29993	-0.000682429	-0.000164036	-0.000164036	52	-4.55655e-05	0	0.000000000000000E+000	1.36668e-08	0.000000000000000E+000	4.76961e+06	107.2	4.55655e-05	0.000000000000000E+000	4.55655e-05	0.0000000E+000	0.000000000000000E+000	2.04681e-07
2	0	0	0	0	0	0	109.3	-0.300043	-0.299911	-0.000665499	-0.000165453	-0.000165453	52	-4.59591e-05	0	0.000000000000000E+000	1.37848e-08	0.000000000000000E+000	1.0822e+07	109.3	4.59591e-05	0.000000000000000E+000	4.59591e-05	0.0000000E+000	0.000000000000000E+000	1.99591e-07
2	0	0	0	0	0	0	111.4	-0.300043	-0.29993	-0.000655732	-0.000166842	-0.000166842	52	-4.63449e-05	0	0.000000000000000E+000	1.39006e-08	0.000000000000000E+000	4.85119e+06	111.4	4.63449e-05	0.000000000000000E+000	4.63449e-05	0.0000000E+000	0.000000000000000E+000	1.96674e-07
2	0	0	0	0	0	0	113.5	-0.300043	-0.299892	-0.000640867	-0.000168201	-0.000168201	52	-4.67224e-05	0	0.000000000000000E+000	1.40138e-08	0.000000000000000E+000	4.40928e+07	113.5	4.67224e-05	0.000000000000000E+000	4.67224e-05	0.0000000E+000	0.000000000000000E+000	1.92191e-07
2	0	0	0	0	0	0	115.6	-0.300043	-0.299923	-0.000614678	-0.000169529	-0.000169529	52	-4.70913e-05	0	0.000000000000000E+000	1.41244e-08	0.000000000000000E+000	6.34162e+06	115.6	4.70913e-05	0.000000000000000E+000	4.70913e-05	0.0000000E+000	0.000000000000000E+000	1.84356e-07
2	0	0	0	0	0	0	117.7	-0.300043	-0.299911	-0.000604107	-0.000170817	-0.000170817	52	-4.74492e-05	0	0.000000000000000E+000	1.42318e-08	0.000000000000000E+000	1.11729e+07	117.7	4.74492e-05	0.000000000000000E+000	4.74492e-05	0.0000000E+000	0.000000000000000E+000	1.81179e-07
2	0	0	0	0	0	0	119.8	-0.300043	-0.299919	-0.000581573	-0.000172059	-0.000172059	52	-4.77942e-05	0	0.000000000000000E+000	1.43352e-08	0.000000000000000E+000	7.5076e+06	119.8	4.77942e-05	0.000000000000000E+000	4.77942e-05	0.0000000E+000	0.000000000000000E+000	1.74425e-07
2	0	0	0	0	0	0	121.9	-0.300043	-0.299919	-0.000542386	-0.000173241	-0.000173241	52	-4.81224e-05	0	0.000000000000000E+000	1.44337e-08	0.000000000000000E+000	7.55915e+06	121.9	4.81224e-05	0.000000000000000E+000	4.81224e-05	0.0000000E+000	0.000000000000000E+000	1.62672e-07
2	0	0	0	0	0	0	124	-0.300043	-0.299927	-0.000495003	-0.000174331	-0.000174331	52	-4.84253e-05	0	0.000000000000000E+000	1.45245e-08	0.000000000000000E+000	5.70134e+06	124	4.84253e-05	0.000000000000000E+000	4.84253e-05	0.0000000E+000	0.000000000000000E+000	1.48465e-07
2	0	0	0	0	0	0	126.1	-0.300043	-0.299938	-0.000387581	-0.000175273	-0.000175273	52	-4.8687e-05	0	0.000000000000000E+000	1.4603e-08	0.000000000000000E+000	4.17105e+06	126.1	4.8687e-05	0.000000000000000E+000	4.8687e-05	0.0000000E+000	0.000000000000000E+000	1.1625e-07
2	0	0	0	0	0	0	128.2	-0.300043	-0.299888	-8.56524e-05	-0.000175803	-0.000175803	52	-4.88343e-05	0	0.000000000000000E+000	1.46472e-08	0.000000000000000E+000	2.30429e+07	128.2	4.88343e-05	0.000000000000000E+000	4.88343e-05	0.0000000E+000	0.000000000000000E+000	2.56862e-08
2	1	0	0	0	0	0	130.3	-0.300043	-0.299896	0.000563778	-0.000175332	-0.000175332	52	1.34223e-07	2	4.02551e-11	0.000000000000000E+000	25294.2	0.000000000000000E+000	1.7	0.000000000000000E+000	1.34223e-07	1.34223e-07	0.0000000E+000	1	-1.69075e-07
2	1	0	0	0	0	0	132.4	-0.300043	-0.299957	0.00149208	-0.000173177	-0.000173177	52	7.32648e-07	2	2.19735e-10	0.000000000000000E+000	62766.6	0.000000000000000E+000	3.8	0.000000000000000E+000	7.32648e-07	7.32648e-07	0.0000000E+000	1	-4.4756e-07
2	1	0	0	0	0	0	134.5	-0.300043	-0.29993	0.00258812	-0.000168857	-0.000168857	52	1.93275e-06	2	5.79675e-10	0.000000000000000E+000	455105	0.000000000000000E+000	5.9	0.000000000000000E+000	1.93275e-06	1.93275e-06	0.0000000E+000	1	-7.76256e-07
2	1	0	0	0	0	0	136.6	-0.300043	-0.299961	0.00357626	-0.000162281	-0.000162281	52	3.75949e-06	2	1.12753e-09	0.000000000000000E+000	295274	0.000000000000000E+000	8	0.000000000000000E+000	3.75949e-06	3.75949e-06	0.0000000E+000	1	-1.07274e-06
2	1	0	0	0	0	0	138.7	-0.300043	-0.300018	0.00421732	-0.000154	-0.000154	52	6.05958e-06	2	1.81741e-09	0.000000000000000E+000	211492	0.000000000000000E+000	10.1	0.000000000000000E+000	6.05958e-06	6.05958e-06	0.0000000E+000	1	-1.26527e-06
2	1	0	0	0	0	0	140.8	-0.300043	-0.299969	0.00460307	-0.000144685	-0.000144685	52	8.64728e-06	2	2.59355e-09	0.000000000000000E+000	581926	0.000000000000000E+000	12.2	0.000000000000000E+000	8.64728e-06	8.64728e-06	0.0000000E+000	1	-1.38078e-06
2	1	0	0	0	0	0	142.9	-0.300043	-0.299965	0.00492177	-0.000134643	-0.000134643	52	1.14366e-05	2	3.43015e-09	0.000000000000000E+000	829231	0.000000000000000E+000	14.3	0.000000000000000E+000	1.14366e-05	1.14366e-05	0.0000000E+000	1	-1.47636e-06
2	1	0	0	0	0	0	145	-0.300043	-0.29995	0.00524251	-0.000123913	-0.000123913	52	1.44172e-05	2	4.32411e-09	0.000000000000000E+000	1.50914e+06	0.000000000000000E+000	16.4	0.000000000000000E+000	1.44172e-05	1.44172e-05	0.0000000E+000	1	-1.57249e-06
2	1	0	0	0	0	0	147.1	-0.300043	-0.2999	0.00546003	-0.000112651	-0.000112651	52	1.75455e-05	2	5.26236e-09	0.000000000000000E+000	4.13143e+06	0.000000000000000E+000	18.5	0.000000000000000E+000	1.75455e-05	1.75455e-05	0.0000000E+000	1	-1.63746e-06
2	1	0	0	0	0	0	149.2	-0.300043	-0.299953	0.00572811	-0.000100866	-0.000100866	52	2.08191e-05	2	6.24415e-09	0.000000000000000E+000	1.96168e+06	0.000000000000000E+000	20.6	0.000000000000000E+000	2.08191e-05	2.08191e-05	0.0000000E+000	1	-1.71816e-06
2	1	0	0	0	0	0	151.3	-0.300043	-0.299938	0.00591609	-8.8677e-05	-8.8677e-05	52	2.42049e-05	2	7.25959e-09	0.000000000000000E+000	3.80216e+06	0.000000000000000E+000	22.7	0.000000000000000E+000	2.42049e-05	2.42049e-05	0.0000000E+000	1	-1.77446e-06
2	1	0	0	0	0	0	153.4	-0.300043	-0.299919	0.00602119	-7.6156e-05	-7.6156e-05	52	2.7683e-05	2	8.30268e-09	0.000000000000000E+000	2.6125e+07	0.000000000000000E+000	24.8	0.000000000000000E+000	2.7683e-05	2.7683e-05	0.0000000E+000	1	-1.80587e-06
2	1	0	0	0	0	0	155.5	-0.300043	-0.299961	0.00617774	-6.33405e-05	-6.33405e-05	52	3.12429e-05	2	9.37041e-09	0.000000000000000E+000	2.45384e+06	0.000000000000000E+000	26.9	0.000000000000000E+000	3.12429e-05	3.12429e-05	0.0000000E+000	1	-1.85308e-06
2	1	0	0	0	0	0	157.6	-0.300043	-0.299885	0.00625679	-5.01911e-05	-5.01911e-05	52	3.48955e-05	2	1.04659e-08	0.000000000000000E+000	4.10841e+06	0.000000000000000E+000	29	0.000000000000000E+000	3.48955e-05	3.48955e-05	0.0000000E+000	1	-1.87631e-06
2	1	0	0	0	0	0	159.7	-0.300043	-0.299892	0.00637288	-3.69186e-05	-3.69186e-05	52	3.85823e-05	2	1.15717e-08	0.000000000000000E+000	6.06058e+06	0.000000000000000E+000	31.1	0.000000000000000E+000	3.85823e-05	3.85823e-05	0.0000000E+000	1	-1.91118e-06
2	1	0	0	0	0	0	161.8	-0.300043	-0.299904	0.00641884	-2.34953e-05	-2.34953e-05	52	4.2311e-05	2	1.269e-08	0.000000000000000E+000	1.33099e+07	0.000000000000000E+000	33.2	0.000000000000000E+000	4.2311e-05	4.2311e-05	0.0000000E+000	1	-1.92503e-06
2	1	0	0	0	0	0	163.9	-0.300043	-0.299896	0.00647801	-9.91712e-06	-9.91712e-06	52	4.60827e-05	2	1.38211e-08	0.000000000000000E+000	8.68425e+06	0.000000000000000E+000	35.3	0.000000000000000E+000	4.60827e-05	4.60827e-05	0.0000000E+000	1	-1.94273e-06
2	1	0	0	0	0	0	166	-0.300043	-0.299827	0.00728661	4.02601e-06	4.02601e-06	52	4.99558e-05	2	1.49826e-08	0.000000000000000E+000	2.04697e+06	0.000000000000000E+000	37.4	0.000000000000000E+000	4.99558e-05	4.99558e-05	0.0000000E+000	1	-2.18472e-06
2	1	0	0	0	0	0	168.1	-0.300043	-0.299934	0.00443089	1.84545e-05	1.84545e-05	52	5.39637e-05	2	1.61846e-08	0.000000000000000E+000	1.01694e+07	0.000000000000000E+000	39.5	0.000000000000000E+000	5.39637e-05	5.39637e-05	0.0000000E+000	1	-1.32898e-06
2	1	0	0	0	0	0	170.2	-0.300043	-0.299927	0.00103104	2.3183e-05	2.3183e-05	52	5.52772e-05	2	1.65785e-08	0.000000000000000E+000	1.73435e+07	0.000000000000000E+000	41.6	0.000000000000000E+000	5.52772e-05	5.52772e-05	0.0000000E+000	1	-3.09235e-07
2	1	0	0	0	0	0	172.3	-0.300043	-0.299957	0.000159891	2.41766e-05	2.41766e-05	52	5.55532e-05	2	1.66613e-08	0.000000000000000E+000	4.75929e+06	0.000000000000000E+000	43.7	0.000000000000000E+000	5.55532e-05	5.55532e-05	0.0000000E+000	1	-4.79603e-08
2	1	0	0	0	0	0	174.4	-0.300043	-0.299911	-2.16755e-05	2.42468e-05	2.42468e-05	52	-3.00123e-09	3	1.66681e-08	9.00215e-13	3.27319e+06	404.165	0.7	3.00123e-09	0.000000000000000E+000	3.00123e-09	0.0000000E+000	1	6.50074e-09
2	1	0	0	0	0	0	176.5	-0.300043	-0.299976	-4.46937e-05	2.41665e-05	2.41665e-05	52	-2.53044e-08	3	1.66681e-08	7.58962e-12	3.27319e+06	2384.3	2.8	2.53044e-08	0.000000000000000E+000	2.53044e-08	0.0000000E+000	1	1.34071e-08
2	1	0	0	0	0	0	178.6	-0.300043	-0.2999	-4.95948e-05	2.40668e-05	2.40668e-05	52	-5.30086e-08	3	1.66681e-08	1.58983e-11	3.27319e+06	4994.71	4.9	5.30086e-08	0.000000000000000E+000	5.30086e-08	0.0000000E+000	1	1.48735e-08
2	1	0	0	0	0	0	180.7	-0.300043	-0.299892	-3.57041e-05	2.39709e-05	2.39709e-05	52	-7.96431e-08	3	1.66681e-08	2.38861e-11	3.27319e+06	6255.24	7	7.96431e-08	0.000000000000000E+000	7.96431e-08	0.0000000E+000	1	1.07074e-08
2	1	0	0	0	0	0	182.8	-0.300043	-0.299907	-2.89869e-05	2.39024e-05	2.39024e-05	52	-9.86645e-08	3	1.66681e-08	2.95912e-11	3.27319e+06	11616.2	9.1	9.86645e-08	0.000000000000000E+000	9.86645e-08	0.0000000E+000	1	8.69339e-09
2	1	0	0	0	0	0	184.9	-0.300043	-0.299862	1.04764e-06	2.38714e-05	2.38714e-05	52	2.9101e-11	4	8.78773e-15	0.000000000000000E+000	0.000000000000000E+000	0.000000000000000E+000	0.000000000000000E+000	0.000000000000000E+000	2.9101e-11	2.9101e-11	0.0000000E+000	2	-3.14146e-10
2	1	0	0	0	0	0	187	-0.300043	-0.29993	1.57603e-05	2.3881e-05	2.3881e-05	52	3.18828e-09	10	9.56217e-13	0.000000000000000E+000	107.279	0.000000000000000E+000	1.2	0.000000000000000E+000	3.18828e-09	3.18828e-09	0.0000000E+000	5	-4.72698e-09
2	1	0	0	0	0	0	189.1	-0.300043	-0.299907	3.82725e-05	2.39366e-05	2.39366e-05	52	1.86418e-08	10	5.59137e-12	0.000000000000000E+000	798.529	0.000000000000000E+000	3.3	0.000000000000000E+000	1.86418e-08	1.86418e-08	0.0000000E+000	5	-1.14782e-08
2	1	0	0	0	0	0	191.2	-0.300043	-0.299896	5.82888e-05	2.40409e-05	2.40409e-05	52	4.76195e-08	10	1.42823e-11	0.000000000000000E+000	2361.35	0.000000000000000E+000	5.4	0.000000000000000E+000	4.76195e-08	4.76195e-08	0.0000000E+000	5	-1.74806e-08
2	1	0	0	0	0	0	193.3	-0.300043	-0.29993	8.88839e-05	2.42003e-05	2.42003e-05	52	9.1885e-08	10	2.75595e-11	0.000000000000000E+000	3092.6	0.000000000000000E+000	7.5	0.000000000000000E+000	9.1885e-08	9.1885e-08	0.0000000E+000	5	-2.6659e-08
2	1	0	0	0	0	0	195.4	-0.300043	-0.299904	0.000123455	2.44234e-05	2.44234e-05	52	1.53858e-07	10	4.61468e-11	0.000000000000000E+000	6901.39	0.000000000000000E+000	9.6	0.000000000000000E+000	1.53858e-07	1.53858e-07	0.0000000E+000	5	-3.70246e-08
2	1	0	0	0	0	0	197.5	-0.300043	-0.299911	0.000146711	2.47076e-05	2.47076e-05	52	2.32816e-07	10	6.98286e-11	0.000000000000000E+000	9536.53	0.000000000000000E+000	11.7	0.000000000000000E+000	2.32816e-07	2.32816e-07	0.0000000E+000	5	-4.40002e-08
2	1	0	0	0	0	0	199.6	-0.300043	-0.299953	0.000188808	2.50666e-05	2.50666e-05	52	3.32525e-07	10	9.97352e-11	0.000000000000000E+000	9214.87	0.000000000000000E+000	13.8	0.000000000000000E+000	3.32525e-07	3.32525e-07	0.0000000E+000	5	-5.66337e-08
2	1	0	0	0	0	0	201.7	-0.300043	-0.299946	0.00023527	2.55129e-05	2.55129e-05	52	4.56505e-07	10	1.36922e-10	0.000000000000000E+000	13443.2	0.000000000000000E+000	15.9	0.000000000000000E+000	4.56505e-07	4.56505e-07	0.0000000E+000	5	-7.05682e-08
2	1	0	0	0	0	0	203.8	-0.300043	-0.299938	0.000298076	2.60851e-05	2.60851e-05	52	6.15436e-07	10	1.8459e-10	0.000000000000000E+000	19329.7	0.000000000000000E+000	18	0.000000000000000E+000	6.15436e-07	6.15436e-07	0.0000000E+000	5	-8.94043e-08
2	1	0	0	0	0	0	205.9	-0.300043	-0.299904	0.000343706	2.67579e-05	2.67579e-05	52	8.02334e-07	10	2.40648e-10	0.000000000000000E+000	36002.5	0.000000000000000E+000	20.1	0.000000000000000E+000	8.02334e-07	8.02334e-07	0.0000000E+000	5	-1.03079e-07
2	1	0	0	0	0	0	208	-0.300043	-0.2999	0.000375986	2.75007e-05	2.75007e-05	52	1.00866e-06	10	3.02528e-10	0.000000000000000E+000	47520.1	0.000000000000000E+000	22.2	0.000000000000000E+000	1.00866e-06	1.00866e-06	0.0000000E+000	5	-1.12758e-07
2	1	0	0	0	0	0	210.1	-0.300043	-0.299919	0.000315665	2.81625e-05	2.81625e-05	52	7.95881e-08	12	2.38698e-11	0.000000000000000E+000	37554.4	0.000000000000000E+000	0.9	0.000000000000000E+000	7.95881e-08	7.95881e-08	0.0000000E+000	6	-9.4674e-08
2	1	0	0	0	0	0	212.2	-0.300043	-0.299873	0.000298323	2.87891e-05	2.87891e-05	52	2.53648e-07	12	7.60727e-11	0.000000000000000E+000	23899.8	0.000000000000000E+000	3	0.000000000000000E+000	2.53648e-07	2.53648e-07	0.0000000E+000	6	-8.94591e-08
2	1	0	0	0	0	0	214.3	-0.300043	-0.299915	0.000384501	2.94389e-05	2.94389e-05	52	4.34151e-07	12	1.30209e-10	0.000000000000000E+000	409716	0.000000000000000E+000	5.1	0.000000000000000E+000	4.34151e-07	4.34151e-07	0.0000000E+000	6	-1.15318e-07
2	1	0	0	0	0	0	216.4	-0.300043	-0.299919	0.000351148	3.01282e-05	3.01282e-05	52	6.25621e-07	12	1.87634e-10	0.000000000000000E+000	295205	0.000000000000000E+000	7.2	0.000000000000000E+000	6.25621e-07	6.25621e-07	0.0000000E+000	6	-1.05316e-07
2	1	0	0	0	0	0	218.5	-0.300043	-0.299976	0.000315464	3.08072e-05	3.08072e-05	52	8.1424e-07	12	2.44206e-10	0.000000000000000E+000	45138.6	0.000000000000000E+000	9.3	0.000000000000000E+000	8.1424e-07	8.1424e-07	0.0000000E+000	6	-9.46316e-08
2	1	0	0	0	0	0	220.6	-0.300043	-0.299919	0.000334288	3.14972e-05	3.14972e-05	52	1.00591e-06	12	3.01689e-10	0.000000000000000E+000	474647	0.000000000000000E+000	11.4	0.000000000000000E+000	1.00591e-06	1.00591e-06	0.0000000E+000	6	-1.00259e-07
2	1	0	0	0	0	0	222.7	-0.300043	-0.299934	0.000335345	3.22018e-05	3.22018e-05	52	1.20163e-06	12	3.6039e-10	0.000000000000000E+000	188754	0.000000000000000E+000	13.5	0.000000000000000E+000	1.20163e-06	1.20163e-06	0.0000000E+000	6	-1.00581e-07
2	1	0	0	0	0	0	224.8	-0.300043	-0.299953	0.000367333	3.29285e-05	3.29285e-05	52	1.40347e-06	12	4.20928e-10	0.000000000000000E+000	120237	0.000000000000000E+000	15.6	0.000000000000000E+000	1.40347e-06	1.40347e-06	0.0000000E+000	6	-1.10183e-07
2	1	0	0	0	0	0	226.9	-0.300043	-0.299827	0.000358706	3.36788e-05	3.36788e-05	52	1.61191e-06	12	4.83442e-10	0.000000000000000E+000	69047	0.000000000000000E+000	17.7	0.000000000000000E+000	1.61191e-06	1.61191e-06	0.0000000E+000	6	-1.0755e-07
2	1	0	0	0	0	0	229	-0.300043	-0.299881	0.000397449	3.44822e-05	3.44822e-05	52	1.83506e-06	12	5.50371e-10	0.000000000000000E+000	216051	0.000000000000000E+000	19.8	0.000000000000000E+000	1.83506e-06	1.83506e-06	0.0000000E+000	6	-1.19187e-07
2	1	0	0	0	0	0	231.1	-0.300043	-0.299988	0.000391844	3.53167e-05	3.53167e-05	52	2.06688e-06	12	6.19901e-10	0.000000000000000E+000	97413.3	0.000000000000000E+000	21.9	0.000000000000000E+000	2.06688e-06	2.06688e-06	0.0000000E+000	6	-1.17548e-07
2	1	0	0	0	0	0	233.2	-0.300043	-0.299946	0.000396868	3.61589e-05	3.61589e-05	52	2.30082e-06	12	6.90069e-10	0.000000000000000E+000	241049	0.000000000000000E+000	24	0.000000000000000E+000	2.30082e-06	2.30082e-06	0.0000000E+000	6	-1.19039e-07
2	1	0	0	0	0	0	235.3	-0.300043	-0.2999	0.000410169	3.70127e-05	3.70127e-05	52	2.53799e-06	12	7.61206e-10	0.000000000000000E+000	796310	0.000000000000000E+000	26.1	0.000000000000000E+000	2.53799e-06	2.53799e-06	0.0000000E+000	6	-1.2301e-07
2	1	0	0	0	0	0	237.4	-0.300043	-0.299965	0.000398677	3.78687e-05	3.78687e-05	52	2.77576e-06	12	8.32519e-10	0.000000000000000E+000	186901	0.000000000000000E+000	28.2	0.000000000000000E+000	2.77576e-06	2.77576e-06	0.0000000E+000	6	-1.19589e-07
2	1	0	0	0	0	0	239.5	-0.300043	-0.300014	0.000404113	3.87138e-05	3.87138e-05	52	3.01052e-06	12	9.0293e-10	0.000000000000000E+000	105103	0.000000000000000E+000	30.3	0.000000000000000E+000	3.01052e-06	3.01052e-06	0.0000000E+000	6	-1.2124e-07
2	1	0	0	0	0	0	241.6	-0.300043	-0.299961	0.000402223	3.95682e-05	3.95682e-05	52	3.24785e-06	12	9.74111e-10	0.000000000000000E+000	235490	0.000000000000000E+000	32.4	0.000000000000000E+000	3.24785e-06	3.24785e-06	0.0000000E+000	6	-1.20651e-07
2	1	0	0	0	0	0	243.7	-0.300043	-0.299972	0.00040352	4.04348e-05	4.04348e-05	52	3.48857e-06	12	1.04631e-09	0.000000000000000E+000	205463	0.000000000000000E+000	34.5	0.000000000000000E+000	3.48857e-06	3.48857e-06	0.0000000E+000	6	-1.21045e-07
2	1	0	0	0	0	0	245.8	-0.300043	-0.299953	0.000410962	4.12975e-05	4.12975e-05	52	3.7282e-06	12	1.11818e-09	0.000000000000000E+000	319398	0.000000000000000E+000	36.6	0.000000000000000E+000	3.7282e-06	3.7282e-06	0.0000000E+000	6	-1.2327e-07
2	1	0	0	0	0	0	247.9	-0.300043	-0.299904	0.000400375	4.21605e-05	4.21605e-05	52	3.96793e-06	12	1.19008e-09	0.000000000000000E+000	1.86502e+06	0.000000000000000E+000	38.7	0.000000000000000E+000	3.96793e-06	3.96793e-06	0.0000000E+000	6	-1.20074e-07
2	1	0	0	0	0	0	250	-0.300043	-0.299938	0.000396245	4.29974e-05	4.29974e-05	52	4.20041e-06	12	1.25981e-09	0.000000000000000E+000	565655	0.000000000000000E+000	40.8	0.000000000000000E+000	4.20041e-06	4.20041e-06	0.0000000E+000	6	-1.18849e-07
2	1	0	0	0	0	0	252.1	-0.300043	-0.299934	0.000407548	4.3841e-05	4.3841e-05	52	4.43474e-06	12	1.3301e-09	0.000000000000000E+000	696616	0.000000000000000E+000	42.9	0.000000000000000E+000	4.43474e-06	4.43474e-06	0.0000000E+000	6	-1.22238e-07
2	1	0	0	0	0	0	254.2	-0.300043	-0.299915	0.000410265	4.47057e-05	4.47057e-05	52	4.67492e-06	12	1.40214e-09	0.000000000000000E+000	4.41181e+06	0.000000000000000E+000	45	0.000000000000000E+000	4.67492e-06	4.67492e-06	0.0000000E+000	6	-1.23045e-07
2	1	0	0	0	0	0	256.3	-0.300043	-0.299957	0.000397657	4.55597e-05	4.55597e-05	52	4.91216e-06	12	1.4733e-09	0.000000000000000E+000	385805	0.000000000000000E+000	47.1	0.000000000000000E+000	4.91216e-06	4.91216e-06	0.0000000E+000	6	-1.1928e-07
2	1	0	0	0	0	0	258.4	-0.300043	-0.299839	0.000397649	4.64102e-05	4.64102e-05	52	5.1484e-06	12	1.54415e-09	0.000000000000000E+000	255403	0.000000000000000E+000	49.2	0.000000000000000E+000	5.1484e-06	5.1484e-06	0.0000000E+000	6	-1.19231e-07
2	1	0	0	0	0	0	260.5	-0.300043	-0.299877	0.000401943	4.72548e-05	4.72548e-05	52	5.38302e-06	12	1.61452e-09	0.000000000000000E+000	563473	0.000000000000000E+000	51.3	0.000000000000000E+000	5.38302e-06	5.38302e-06	0.0000000E+000	6	-1.20533e-07
2	1	0	0	0	0	0	262.6	-0.300043	-0.299934	0.000441116	4.81294e-05	4.81294e-05	52	5.62596e-06	12	1.68739e-09	0.000000000000000E+000	883736	0.000000000000000E+000	53.4	0.000000000000000E+000	5.62596e-06	5.62596e-06	0.0000000E+000	6	-1.32306e-07
2	1	0	0	0	0	0	264.7	-0.300043	-0.29995	0.000544274	4.91403e-05	4.91403e-05	52	5.90676e-06	12	1.77161e-09	0.000000000000000E+000	556562	0.000000000000000E+000	55.5	0.000000000000000E+000	5.90676e-06	5.90676e-06	0.0000000E+000	6	-1.63255e-07
2	1	0	0	0	0	0	266.8	-0.300043	-0.299984	0.000852548	5.05673e-05	5.05673e-05	52	6.30314e-06	12	1.8905e-09	0.000000000000000E+000	312688	0.000000000000000E+000	57.6	0.000000000000000E+000	6.30314e-06	6.30314e-06	0.0000000E+000	6	-2.55751e-07
2	1	0	0	0	0	0	268.9	-0.300043	-0.299942	0.00134928	5.28987e-05	5.28987e-05	52	6.95077e-06	12	2.08474e-09	0.000000000000000E+000	819146	0.000000000000000E+000	59.7	0.000000000000000E+000	6.95077e-06	6.95077e-06	0.0000000E+000	6	-4.04707e-07
2	1	0	0	0	0	0	271	-0.300043	-0.299972	0.00191232	5.64366e-05	5.64366e-05	52	7.93351e-06	12	2.37952e-09	0.000000000000000E+000	467253	0.000000000000000E+000	61.8	0.000000000000000E+000	7.93351e-06	7.93351e-06	0.0000000E+000	6	-5.73645e-07
2	1	0	0	0	0	0	273.1	-0.300043	-0.299915	0.00252454	6.11522e-05	6.11522e-05	52	9.24341e-06	12	2.77241e-09	0.000000000000000E+000	8.72318e+06	0.000000000000000E+000	63.9	0.000000000000000E+000	9.24341e-06	9.24341e-06	0.0000000E+000	6	-7.57148e-07
2	1	0	0	0	0	0	275.2	-0.300043	-0.299911	0.00309909	6.70895e-05	6.70895e-05	52	1.08927e-05	12	3.26709e-09	0.000000000000000E+000	0.000000000000000E+000	0.000000000000000E+000	66	0.000000000000000E+000	1.08927e-05	1.08927e-05	0.0000000E+000	6	-9.29452e-07
2	1	0	0	0	0	0	277.3	-0.300043	-0.299927	0.00356449	7.41289e-05	7.41289e-05	52	1.2848e-05	12	3.8536e-09	0.000000000000000E+000	3.03123e+06	0.000000000000000E+000	68.1	0.000000000000000E+000	1.2848e-05	1.2848e-05	0.0000000E+000	6	-1.06908e-06
2	1	0	0	0	0	0	279.4	-0.300043	-0.299877	0.00390265	8.20119e-05	8.20119e-05	52	1.50378e-05	12	4.51038e-09	0.000000000000000E+000	1.57409e+06	0.000000000000000E+000	70.2	0.000000000000000E+000	1.50378e-05	1.50378e-05	0.0000000E+000	6	-1.17032e-06
2	1	0	0	0	0	0	281.5	-0.300043	-0.29995	0.00413452	9.04848e-05	9.04848e-05	52	1.73913e-05	12	5.21628e-09	0.000000000000000E+000	1.63869e+06	0.000000000000000E+000	72.3	0.000000000000000E+000	1.73913e-05	1.73913e-05	0.0000000E+000	6	-1.24015e-06
2	1	0	0	0	0	0	283.6	-0.300043	-0.299946	0.00426181	9.93383e-05	9.93383e-05	52	1.98506e-05	12	5.95386e-09	0.000000000000000E+000	2.07969e+06	0.000000000000000E+000	74.4	0.000000000000000E+000	1.98506e-05	1.98506e-05	0.0000000E+000	6	-1.27831e-06
2	1	0	0	0	0	0	285.7	-0.300043	-0.299972	0.0043039	0.000108343	0.000108343	52	2.2352e-05	12	6.70406e-09	0.000000000000000E+000	1.31645e+06	0.000000000000000E+000	76.5	0.000000000000000E+000	2.2352e-05	2.2352e-05	0.0000000E+000	6	-1.29105e-06
2	1	0	0	0	0	0	287.8	-0.300043	-0.299869	0.0042901	0.000117344	0.000117344	52	2.48523e-05	12	7.4539e-09	0.000000000000000E+000	2.12912e+06	0.000000000000000E+000	78.6	0.000000000000000E+000	2.48523e-05	2.48523e-05	0.0000000E+000	6	-1.28647e-06
2	1	0	0	0	0	0	289.9	-0.300043	-0.299965	0.00445745	0.000126452	0.000126452	52	2.73822e-05	12	8.21266e-09	0.000000000000000E+000	1.84373e+06	0.000000000000000E+000	80.7	0.000000000000000E+000	2.73822e-05	2.73822e-05	0.0000000E+000	6	-1.33708e-06
2	1	0	0	0	0	0	292	-0.300043	-0.299938	0.00440245	0.000135844	0.000135844	52	2.9991e-05	12	8.99514e-09	0.000000000000000E+000	4.03879e+06	0.000000000000000E+000	82.8	0.000000000000000E+000	2.9991e-05	2.9991e-05	0.0000000E+000	6	-1.32046e-06
2	1	0	0	0	0	0	294.1	-0.300043	-0.299961	0.00418504	0.000144773	0.000144773	52	3.24714e-05	12	9.73904e-09	0.000000000000000E+000	2.35439e+06	0.000000000000000E+000	84.9	0.000000000000000E+000	3.24714e-05	3.24714e-05	0.0000000E+000	6	-1.25535e-06
2	1	0	0	0	0	0	296.2	-0.300043	-0.299934	0.00447657	0.000154428	0.000154428	52	3.51532e-05	12	1.05434e-08	0.000000000000000E+000	5.52193e+06	0.000000000000000E+000	87	0.000000000000000E+000	3.51532e-05	3.51532e-05	0.0000000E+000	6	-1.34268e-06
2	1	0	0	0	0	0	298.3	-0.300043	-0.299988	0.00408795	0.000163444	0.000163444	52	3.76579e-05	12	1.12946e-08	0.000000000000000E+000	1.77484e+06	0.000000000000000E+000	89.1	0.000000000000000E+000	3.76579e-05	3.76579e-05	0.0000000E+000	6	-1.22634e-06
2	1	0	0	0	0	0	300.4	-0.300043	-0.29995	0.00353348	0.000171443	0.000171443	52	3.98796e-05	12	1.19609e-08	0.000000000000000E+000	3.75764e+06	0.000000000000000E+000	91.2	0.000000000000000E+000	3.98796e-05	3.98796e-05	0.0000000E+000	6	-1.05986e-06
2	1	0	0	0	0	0	302.5	-0.300043	-0.299896	0.00287532	0.000178143	0.000178143	52	4.17408e-05	12	1.25192e-08	0.000000000000000E+000	9.8287e+06	0.000000000000000E+000	93.3	0.000000000000000E+000	4.17408e-05	4.17408e-05	0.0000000E+000	6	-8.62296e-07
2	1	0	0	0	0	0	304.6	-0.300043	-0.299911	0.00220094	0.000183437	0.000183437	52	4.32115e-05	12	1.29602e-08	0.000000000000000E+000	0.000000000000000E+000	0.000000000000000E+000	95.4	0.000000000000000E+000	4.32115e-05	4.32115e-05	0.0000000E+000	6	-6.60087e-07
2	1	0	0	0	0	0	306.7	-0.300043	-0.299881	0.00163972	0.000187414	0.000187414	52	4.43161e-05	12	1.32915e-08	0.000000000000000E+000	5.21755e+06	0.000000000000000E+000	97.5	0.000000000000000E+000	4.43161e-05	4.43161e-05	0.0000000E+000	6	-4.9172e-07
2	1	0	0	0	0	0	308.8	-0.300043	-0.299927	0.00125876	0.000190416	0.000190416	52	4.51499e-05	12	1.35416e-08	0.000000000000000E+000	1.06522e+07	0.000000000000000E+000	99.6	0.000000000000000E+000	4.51499e-05	4.51499e-05	0.0000000E+000	6	-3.77536e-07
2	1	0	0	0	0	0	310.9	-0.300043	-0.299946	0.00101968	0.000192788	0.000192788	52	4.5809e-05	12	1.37392e-08	0.000000000000000E+000	4.79509e+06	0.000000000000000E+000	101.7	0.000000000000000E+000	4.5809e-05	4.5809e-05	0.0000000E+000	6	-3.05849e-07
2	1	0	0	0	0	0	313	-0.300043	-0.299946	0.000840918	0.000194739	0.000194739	52	4.63508e-05	12	1.39017e-08	0.000000000000000E+000	4.85602e+06	0.000000000000000E+000	103.8	0.000000000000000E+000	4.63508e-05	4.63508e-05	0.0000000E+000	6	-2.5223e-07
2	1	0	0	0	0	0	315.1	-0.300043	-0.299862	0.00068889	0.000196334	0.000196334	52	4.6794e-05	12	1.40346e-08	0.000000000000000E+000	3.39084e+06	0.000000000000000E+000	105.9	0.000000000000000E+000	4.6794e-05	4.6794e-05	0.0000000E+000	6	-2.06572e-07
2	1	0	0	0	0	0	317.2	-0.300043	-0.2999	0.000551416	0.00019763	0.00019763	52	4.71539e-05	12	1.41426e-08	0.000000000000000E+000	1.47948e+07	0.000000000000000E+000	108	0.000000000000000E+000	4.71539e-05	4.71539e-05	0.0000000E+000	6	-1.6537e-07
2	1	0	0	0	0	0	319.3	-0.300043	-0.299904	0.00043549	0.000198659	0.000198659	52	4.74398e-05	12	1.42283e-08	0.000000000000000E+000	2.22978e+07	0.000000000000000E+000	110.1	0.000000000000000E+000	4.74398e-05	4.74398e-05	0.0000000E+000	6	-1.30605e-07
2	1	0	0	0	0	0	321.4	-0.300043	-0.299885	0.000348484	0.000199471	0.000199471	52	4.76654e-05	12	1.4296e-08	0.000000000000000E+000	6.41179e+06	0.000000000000000E+000	112.2	0.000000000000000E+000	4.76654e-05	4.76654e-05	0.0000000E+000	6	-1.04505e-07
2	1	0	0	0	0	0	323.5	-0.300043	-0.299896	0.000271977	0.000200111	0.000200111	52	4.7843e-05	12	1.43492e-08	0.000000000000000E+000	1.12656e+07	0.000000000000000E+000	114.3	0.000000000000000E+000	4.7843e-05	4.7843e-05	0.0000000E+000	6	-8.15648e-08
2	1	0	0	0	0	0	325.6	-0.300043	-0.299885	0.000226442	0.000200629	0.000200629	52	4.79869e-05	12	1.43924e-08	0.000000000000000E+000	6.45503e+06	0.000000000000000E+000	116.4	0.000000000000000E+000	4.79869e-05	4.79869e-05	0.0000000E+000	6	-6.79066e-08
2	1	0	0	0	0	0	327.7	-0.300043	-0.299942	0.000166198	0.000201029	0.000201029	52	4.8098e-05	12	1.44257e-08	0.000000000000000E+000	5.66833e+06	0.000000000000000E+000	118.5	0.000000000000000E+000	4.8098e-05	4.8098e-05	0.0000000E+000	6	-4.98499e-08
2	1	0	0	0	0	0	329.8	-0.300043	-0.299892	0.000139831	0.000201341	0.000201341	52	4.81848e-05	12	1.44517e-08	0.000000000000000E+000	9.08038e+06	0.000000000000000E+000	120.6	0.000000000000000E+000	4.81848e-05	4.81848e-05	0.0000000E+000	6	-4.19344e-08
2	0	0	0	0	0	0	331.9	-0.300043	-0.299862	0.0001125	0.000201603	0.000201603	52	4.82576e-05	12	1.44736e-08	0.000000000000000E+000	3.4969e+06	0.000000000000000E+000	122.7	0.000000000000000E+000	4.82576e-05	4.82576e-05	0.0000000E+000	6	-3.37346e-08
2	0	0	0	0	0	0	334	-0.300043	-0.299881	8.44181e-05	0.000201802	0.000201802	52	4.83127e-05	12	1.44901e-08	0.000000000000000E+000	5.68809e+06	0.000000000000000E+000	124.8	0.000000000000000E+000	4.83127e-05	4.83127e-05	0.0000000E+000	6	-2.53154e-08
2	1	0	0	0	0	0	336.1	-0.300043	-0.299908	6.64095e-05	0.000201957	0.000201957	52	4.83557e-05	12	1.4503e-08	0.000000000000000E+000	4.56342e+07	0.000000000000000E+000	126.9	0.000000000000000E+000	4.83557e-05	4.83557e-05	0.0000000E+000	6	-1.99167e-08
2	0	0	0	0	0	0	338.2	-0.300043	-0.299942	3.7854e-05	0.000202062	0.000202062	52	4.83849e-05	12	1.45118e-08	0.000000000000000E+000	5.70215e+06	0.000000000000000E+000	129	0.000000000000000E+000	4.83849e-05	4.83849e-05	0.0000000E+000	6	-1.1354e-08
2	0	0	0	0	0	0	340.3	-0.300043	-0.299885	1.17163e-05	0.00020212	0.00020212	52	4.8401e-05	12	1.45166e-08	0.000000000000000E+000	6.51074e+06	0.000000000000000E+000	131.1	0.000000000000000E+000	4.8401e-05	4.8401e-05	0.0000000E+000	6	-3.51355e-09
2	0	0	0	0	0	0	342.4	-0.300043	-0.299907	-6.96796e-06	0.000202137	0.000202137	52	-6.15342e-10	13	1.45182e-08	1.84266e-13	4.53279e+07	52.7543	0.6	6.15342e-10	0.000000000000000E+000	6.15342e-10	0.0000000E+000	6	2.08974e-09
2	0	0	0	0	0	0	344.5	-0.300043	-0.299927	-3.09744e-05	0.000202093	0.000202093	52	-1.28371e-08	13	1.45182e-08	3.85043e-12	4.53279e+07	756.425	2.7	1.28371e-08	0.000000000000000E+000	1.28371e-08	0.0000000E+000	6	9.29005e-09
2	0	0	0	0	0	0	346.6	-0.300043	-0.299881	-5.69575e-05	0.000201998	0.000201998	52	-3.91514e-08	13	1.45182e-08	1.17411e-11	4.53279e+07	9236.97	4.8	3.91514e-08	0.000000000000000E+000	3.91514e-08	0.0000000E+000	6	1.70804e-08
2	0	0	0	0	0	0	348.7	-0.300043	-0.299957	-7.54098e-05	0.000201846	0.000201846	52	-8.15096e-08	13	1.45182e-08	2.44452e-11	4.53279e+07	3200.92	6.9	8.15096e-08	0.000000000000000E+000	8.15096e-08	0.0000000E+000	6	2.26197e-08
2	0	0	0	0	0	0	350.8	-0.300043	-0.299877	-0.000104322	0.000201646	0.000201646	52	-1.36862e-07	13	1.45182e-08	4.10477e-11	4.53279e+07	43052.9	9	1.36862e-07	0.000000000000000E+000	1.36862e-07	0.0000000E+000	6	3.12836e-08
2	0	0	0	0	0	0	352.9	-0.300043	-0.299904	-0.000125076	0.000201402	0.000201402	52	-2.04811e-07	13	1.45182e-08	6.14258e-11	4.53279e+07	19298.2	11.1	2.04811e-07	0.000000000000000E+000	2.04811e-07	0.0000000E+000	6	3.75107e-08
2	0	0	0	0	0	0	355	-0.300043	-0.299865	-0.000144893	0.000201117	0.000201117	52	-2.83938e-07	13	1.45182e-08	8.51557e-11	4.53279e+07	0.000000000000000E+000	13.2	2.83938e-07	0.000000000000000E+000	2.83938e-07	0.0000000E+000	6	4.34484e-08
2	0	0	0	0	0	0	357.1	-0.300043	-0.299846	-0.000165729	0.000200786	0.000200786	52	-3.75811e-07	13	1.45182e-08	1.12708e-10	4.53279e+07	70821.4	15.3	3.75811e-07	0.000000000000000E+000	3.75811e-07	0.0000000E+000	6	4.96931e-08
2	0	0	0	0	0	0	359.2	-0.300043	-0.299843	-0.000189095	0.000200405	0.000200405	52	-4.81736e-07	13	1.45182e-08	1.44472e-10	4.53279e+07	75573.7	17.4	4.81736e-07	0.000000000000000E+000	4.81736e-07	0.0000000E+000	6	5.66986e-08
2	0	0	0	0	0	0	361.3	-0.300043	-0.299892	-0.00021677	0.000199972	0.000199972	52	-6.01983e-07	13	1.45182e-08	1.80535e-10	4.53279e+07	81067	19.5	6.01983e-07	0.000000000000000E+000	6.01983e-07	0.0000000E+000	6	6.50077e-08
2	0	0	0	0	0	0	363.4	-0.300043	-0.299862	-0.000243788	0.000199492	0.000199492	52	-7.35303e-07	13	1.45182e-08	2.20518e-10	4.53279e+07	688540	21.6	7.35303e-07	0.000000000000000E+000	7.35303e-07	0.0000000E+000	6	7.31026e-08
2	0	0	0	0	0	0	365.5	-0.300043	-0.299892	-0.0002572	0.000198967	0.000198967	52	-8.81224e-07	13	1.45182e-08	2.6428e-10	4.53279e+07	118671	23.7	8.81224e-07	0.000000000000000E+000	8.81224e-07	0.0000000E+000	6	7.71324e-08
2	0	0	0	0	0	0	367.6	-0.300043	-0.299923	-0.000280464	0.000198395	0.000198395	52	-1.04e-06	13	1.45182e-08	3.11896e-10	4.53279e+07	65363.2	25.8	1.04e-06	0.000000000000000E+000	1.04e-06	0.0000000E+000	6	8.41175e-08
2	0	0	0	0	0	0	369.7	-0.300043	-0.299904	-0.000291018	0.000197792	0.000197792	52	-1.20762e-06	13	1.45182e-08	3.62164e-10	4.53279e+07	113877	27.9	1.20762e-06	0.000000000000000E+000	1.20762e-06	0.0000000E+000	6	8.72774e-08
2	0	0	0	0	0	0	371.8	-0.300043	-0.299862	-0.000321943	0.000197144	0.000197144	52	-1.38751e-06	13	1.45182e-08	4.1611e-10	4.53279e+07	1.29927e+06	30	1.38751e-06	0.000000000000000E+000	1.38751e-06	0.0000000E+000	6	9.65383e-08
2	0	0	0	0	0	0	373.9	-0.300043	-0.299869	-0.000332489	0.000196446	0.000196446	52	-1.58129e-06	13	1.45182e-08	4.7423e-10	4.53279e+07	1.4923e+06	32.1	1.58129e-06	0.000000000000000E+000	1.58129e-06	0.0000000E+000	6	9.97032e-08
2	0	0	0	0	0	0	376	-0.300043	-0.29995	-0.000365287	0.0001957	0.0001957	52	-1.78878e-06	13	1.45182e-08	5.36463e-10	4.53279e+07	76623.3	34.2	1.78878e-06	0.000000000000000E+000	1.78878e-06	0.0000000E+000	6	1.09568e-07
2	0	0	0	0	0	0	378.1	-0.300043	-0.299888	-0.000394535	0.000194898	0.000194898	52	-2.01143e-06	13	1.45182e-08	6.03239e-10	4.53279e+07	315959	36.3	2.01143e-06	0.000000000000000E+000	2.01143e-06	0.0000000E+000	6	1.18317e-07
2	0	0	0	0	0	0	380.2	-0.300043	-0.299904	-0.000418647	0.000194047	0.000194047	52	-2.24779e-06	13	1.45182e-08	6.74128e-10	4.53279e+07	211963	38.4	2.24779e-06	0.000000000000000E+000	2.24779e-06	0.0000000E+000	6	1.25554e-07
2	0	0	0	0	0	0	382.3	-0.300043	-0.299873	-0.000442297	0.000193142	0.000193142	52	-2.49925e-06	13	1.45182e-08	7.49545e-10	4.53279e+07	1.17929e+06	40.5	2.49925e-06	0.000000000000000E+000	2.49925e-06	0.0000000E+000	6	1.32633e-07
2	0	0	0	0	0	0	384.4	-0.300043	-0.29993	-0.00047454	0.00019218	0.00019218	52	-2.76642e-06	13	1.45182e-08	8.29675e-10	4.53279e+07	153360	42.6	2.76642e-06	0.000000000000000E+000	2.76642e-06	0.0000000E+000	6	1.42329e-07
2	0	0	0	0	0	0	386.5	-0.300043	-0.299885	-0.000492126	0.000191172	0.000191172	52	-3.04651e-06	13	1.45182e-08	9.1368e-10	4.53279e+07	574112	44.7	3.04651e-06	0.000000000000000E+000	3.04651e-06	0.0000000E+000	6	1.47581e-07
2	0	0	0	0	0	0	388.6	-0.300043	-0.29993	-0.000522162	0.000190108	0.000190108	52	-3.34188e-06	13	1.45182e-08	1.00227e-09	4.53279e+07	185262	46.8	3.34188e-06	0.000000000000000E+000	3.34188e-06	0.0000000E+000	6	1.56612e-07
2	0	0	0	0	0	0	390.7	-0.300043	-0.299907	-0.000547897	0.000188985	0.000188985	52	-3.65379e-06	13	1.45182e-08	1.09581e-09	4.53279e+07	313245	48.9	3.65379e-06	0.000000000000000E+000	3.65379e-06	0.0000000E+000	6	1.64318e-07
2	0	0	0	0	0	0	392.8	-0.300043	-0.299888	-0.00057197	0.000187808	0.000187808	52	-3.98096e-06	13	1.45182e-08	1.19393e-09	4.53279e+07	625337	51	3.98096e-06	0.000000000000000E+000	3.98096e-06	0.0000000E+000	6	1.71527e-07
2	0	0	0	0	0	0	394.9	-0.300043	-0.299885	-0.000597449	0.000186576	0.000186576	52	-4.3231e-06	13	1.45182e-08	1.29654e-09	4.53279e+07	814685	53.1	4.3231e-06	0.000000000000000E+000	4.3231e-06	0.0000000E+000	6	1.79166e-07
2	0	0	0	0	0	0	397	-0.300043	-0.299896	-0.000631189	0.000185288	0.000185288	52	-4.68099e-06	13	1.45182e-08	1.40387e-09	4.53279e+07	551653	55.2	4.68099e-06	0.000000000000000E+000	4.68099e-06	0.0000000E+000	6	1.89291e-07
2	0	0	0	0	0	0	399.1	-0.300043	-0.299839	-0.000649842	0.000183951	0.000183951	52	-5.05237e-06	13	1.45182e-08	1.51524e-09	4.53279e+07	679628	57.3	5.05237e-06	0.000000000000000E+000	5.05237e-06	0.0000000E+000	6	1.94848e-07
2	0	0	0	0	0	0	401.2	-0.300043	-0.299873	-0.000660212	0.000182564	0.000182564	52	-5.43742e-06	13	1.45182e-08	1.63071e-09	4.53279e+07	2.5657e+06	59.4	5.43742e-06	0.000000000000000E+000	5.43742e-06	0.0000000E+000	6	1.9798e-07
2	0	0	0	0	0	0	403.3	-0.300043	-0.299862	-0.000686742	0.00018114	0.00018114	52	-5.83298e-06	13	1.45182e-08	1.74935e-09	4.53279e+07	5.46202e+06	61.5	5.83298e-06	0.000000000000000E+000	5.83298e-06	0.0000000E+000	6	2.05927e-07
2	0	0	0	0	0	0	405.4	-0.300043	-0.299908	-0.000713855	0.000179664	0.000179664	52	-6.24317e-06	13	1.45182e-08	1.87236e-09	4.53279e+07	534858	63.6	6.24317e-06	0.000000000000000E+000	6.24317e-06	0.0000000E+000	6	2.1409e-07
2	0	0	0	0	0	0	407.5	-0.300043	-0.299888	-0.000744348	0.000178136	0.000178136	52	-6.66748e-06	13	1.45182e-08	1.9996e-09	4.53279e+07	1.04734e+06	65.7	6.66748e-06	0.000000000000000E+000	6.66748e-06	0.0000000E+000	6	2.23221e-07
2	0	0	0	0	0	0	409.6	-0.300043	-0.2999	-0.000761032	0.000176561	0.000176561	52	-7.10492e-06	13	1.45182e-08	2.13079e-09	4.53279e+07	744358	67.8	7.10492e-06	0.000000000000000E+000	7.10492e-06	0.0000000E+000	6	2.28233e-07
2	0	0	0	0	0	0	410.959	-0.300043	-0.299927	-0.000790372	0.000175514	0.000175514	52	-7.39586e-06	13	1.45182e-08	2.21804e-09	4.53279e+07	435588	69.1592	7.39586e-06	0.000000000000000E+000	7.39586e-06	15.2787	6	2.37054e-07