File: Fig 6/Fig 6_prec-Fe3O4.mpt
mode	ox/red	error	control changes	counter inc.	time/s	control/V	Ewe/V	<I>/mA	cycle number	(Q-Qo)/C	I Range	step time/s	P/W
2	1	1	1	0	0.000000000000000E+000	-0.300317	-0.300301	0.0781771	1	0.0000000E+000	41	0.000000000000000E+000	-2.34767e-05
2	1	0	0	0	0.7698	-0.304166	-0.304176	0.00909587	1	1.51399e-05	41	0.6298	-2.76675e-06
2	1	0	1	0	1.5696	-0.308164	-0.308174	0.00560457	1	2.07012e-05	41	1.4296	-1.72718e-06
2	1	0	0	0	2.3894	-0.312263	-0.312285	0.00424397	1	2.46324e-05	42	2.2494	-1.32533e-06
2	1	0	1	0	3.1891	-0.316262	-0.316268	0.00352657	1	2.7685e-05	42	3.0491	-1.11534e-06
2	1	0	1	0	3.9889	-0.320261	-0.320241	0.00305836	1	3.02725e-05	42	3.8489	-9.7941e-07
2	1	0	0	0	4.7886	-0.32426	-0.324242	0.00272469	1	3.25505e-05	42	4.6486	-8.83461e-07
2	1	0	1	0	5.5884	-0.328259	-0.328256	0.00246813	1	3.45953e-05	42	5.4484	-8.10177e-07
2	1	0	0	0	6.3882	-0.332257	-0.332258	0.00227123	1	3.64596e-05	42	6.2482	-7.54633e-07
2	1	0	1	0	7.188	-0.336256	-0.336261	0.00211011	1	3.81793e-05	42	7.048	-7.09549e-07
2	1	0	1	0	7.9877	-0.340255	-0.340249	0.0019731	1	3.97777e-05	42	7.8477	-6.71345e-07
2	1	0	1	0	8.7875	-0.344254	-0.344233	0.00184578	1	4.12723e-05	42	8.6475	-6.35378e-07
2	1	0	1	0	9.5872	-0.348253	-0.348264	0.00175114	1	4.26804e-05	42	9.4472	-6.09857e-07
2	1	0	0	0	10.387	-0.352252	-0.352263	0.00164936	1	4.40091e-05	42	10.247	-5.81008e-07
2	1	0	1	0	11.1868	-0.35625	-0.356247	0.00157525	1	4.5271e-05	42	11.0468	-5.61178e-07
2	1	0	0	0	11.9866	-0.360249	-0.360225	0.00149012	1	4.64673e-05	42	11.8466	-5.36778e-07
2	1	0	1	0	12.7863	-0.364248	-0.364222	0.00143261	1	4.76061e-05	42	12.6463	-5.21788e-07
2	1	0	1	0	13.5861	-0.368247	-0.368237	0.00137252	1	4.86956e-05	42	13.4461	-5.05412e-07
2	1	0	0	0	14.3858	-0.372246	-0.372236	0.00131271	1	4.97341e-05	42	14.2458	-4.88639e-07
2	1	0	1	0	15.1856	-0.376245	-0.376236	0.00125762	1	5.07336e-05	42	15.0456	-4.73163e-07
2	1	0	0	0	15.9854	-0.380243	-0.380233	0.00120877	1	5.16886e-05	42	15.8454	-4.59613e-07
2	1	0	1	0	16.7852	-0.384242	-0.384217	0.00115547	1	5.26047e-05	42	16.6452	-4.43954e-07
2	1	0	1	0	17.5849	-0.388241	-0.388231	0.0011104	1	5.34856e-05	42	17.4449	-4.3109e-07
2	1	0	0	0	18.3846	-0.39224	-0.392218	0.00108515	1	5.43318e-05	42	18.2446	-4.25614e-07
2	1	0	1	0	19.1844	-0.396239	-0.396206	0.00103975	1	5.51475e-05	42	19.0444	-4.11953e-07
2	1	0	0	0	19.9842	-0.400237	-0.400214	0.000988028	1	5.59322e-05	42	19.8442	-3.95422e-07
2	1	0	1	0	20.784	-0.404236	-0.40421	0.000956289	1	5.66812e-05	42	20.644	-3.86542e-07
2	1	0	0	0	21.5838	-0.408235	-0.408214	0.000914499	1	5.73994e-05	42	21.4438	-3.73311e-07
2	1	0	1	0	22.3835	-0.412234	-0.412205	0.00088824	1	5.80899e-05	42	22.2435	-3.66137e-07
2	1	0	1	0	23.1832	-0.416233	-0.416222	0.000847987	1	5.87552e-05	42	23.0432	-3.52951e-07
2	1	0	0	0	23.983	-0.420232	-0.420205	0.000820962	1	5.93944e-05	42	23.843	-3.44973e-07
2	1	0	1	0	24.7828	-0.42423	-0.424227	0.000789183	1	6.00044e-05	42	24.6428	-3.34793e-07
2	1	0	0	0	25.5826	-0.428229	-0.428218	0.000752265	1	6.05901e-05	42	25.4426	-3.22133e-07
2	1	0	1	0	26.3824	-0.432228	-0.432203	0.000724977	1	6.11502e-05	42	26.2424	-3.13337e-07
2	1	0	1	0	27.1821	-0.436227	-0.436238	0.000682194	1	6.16831e-05	42	27.0421	-2.97599e-07
2	1	0	0	0	27.9818	-0.440226	-0.440207	0.000664889	1	6.21925e-05	42	27.8418	-2.92689e-07
2	1	0	1	0	28.7816	-0.444225	-0.444186	0.000635048	1	6.26829e-05	42	28.6416	-2.82079e-07
2	1	0	0	0	29.5814	-0.448223	-0.4482	0.000609485	1	6.31523e-05	42	29.4414	-2.73171e-07
2	1	0	1	0	30.3812	-0.452222	-0.452207	0.000581913	1	6.35947e-05	42	30.2412	-2.63145e-07
2	1	0	1	0	31.1809	-0.456221	-0.456205	0.00056284	1	6.40205e-05	42	31.0409	-2.5677e-07
2	1	0	1	0	31.9807	-0.46022	-0.46021	0.000535849	1	6.44257e-05	42	31.8407	-2.46603e-07
2	1	0	1	0	32.7804	-0.464219	-0.46421	0.00050769	1	6.48086e-05	42	32.6404	-2.35675e-07
2	1	0	0	0	33.5802	-0.468218	-0.468191	0.000486521	1	6.51755e-05	42	33.4402	-2.27785e-07
2	1	0	1	0	34.38	-0.472216	-0.4722	0.000461029	1	6.55213e-05	42	34.24	-2.17698e-07
2	1	0	0	0	35.1798	-0.476215	-0.476197	0.000438413	1	6.58508e-05	42	35.0398	-2.08771e-07
2	1	0	1	0	35.9795	-0.480214	-0.480217	0.000425077	1	6.61611e-05	42	35.8395	-2.04129e-07
2	1	0	1	0	36.7793	-0.484213	-0.484182	0.000391735	1	6.6453e-05	42	36.6393	-1.89671e-07
2	1	0	0	0	37.579	-0.488212	-0.488203	0.000367628	1	6.67263e-05	42	37.439	-1.79477e-07
2	1	0	1	0	38.3788	-0.492211	-0.492196	0.000352269	1	6.69823e-05	42	38.2388	-1.73386e-07
2	1	0	0	0	39.1786	-0.496209	-0.496194	0.000334296	1	6.72247e-05	42	39.0386	-1.65876e-07
2	1	0	1	0	39.9784	-0.500208	-0.500189	0.000313171	1	6.74536e-05	42	39.8384	-1.56645e-07
2	1	0	1	0	40.7781	-0.504207	-0.504191	0.000279812	1	6.76591e-05	42	40.6381	-1.41079e-07
2	1	0	1	0	41.5779	-0.508206	-0.508191	0.000264409	1	6.78448e-05	42	41.4379	-1.3437e-07
2	1	0	1	0	42.3776	-0.512205	-0.512191	0.000242452	1	6.80161e-05	42	42.2376	-1.24182e-07
2	1	0	0	0	43.1774	-0.516204	-0.516193	0.000219831	1	6.81673e-05	42	43.0374	-1.13475e-07
2	1	0	1	0	43.9772	-0.520202	-0.520194	0.000195081	1	6.83037e-05	42	43.8372	-1.0148e-07
2	1	0	0	0	44.777	-0.524201	-0.524195	0.000178098	1	6.84223e-05	42	44.637	-9.33581e-08
2	1	0	1	0	45.5767	-0.5282	-0.528211	0.00015309	1	6.85208e-05	42	45.4367	-8.08636e-08
2	1	0	1	0	46.3764	-0.532199	-0.532178	0.000133228	1	6.86032e-05	42	46.2364	-7.09012e-08
2	1	0	0	0	47.1762	-0.536198	-0.536226	0.000113635	1	6.86717e-05	42	47.0362	-6.09339e-08
2	1	0	1	0	47.976	-0.540197	-0.540191	9.35185e-05	1	6.872e-05	42	47.836	-5.05178e-08
2	1	0	0	0	48.7758	-0.544195	-0.544193	7.0312e-05	1	6.87496e-05	42	48.6358	-3.82633e-08
2	1	0	1	0	49.5756	-0.548194	-0.54818	5.50256e-05	1	6.8761e-05	42	49.4356	-3.01639e-08
2	1	0	1	0	50.3753	-0.552193	-0.5522	1.6629e-05	1	6.87537e-05	42	0.3999	-9.18255e-09
2	1	0	0	0	51.175	-0.556192	-0.556177	-6.94865e-06	1	6.87204e-05	42	1.1996	3.86468e-09
2	1	0	1	0	51.9748	-0.560191	-0.560147	-1.8874e-05	1	6.86735e-05	42	1.9994	1.05722e-08
2	1	0	0	0	52.7746	-0.564189	-0.564166	-4.96035e-05	1	6.86051e-05	42	2.7992	2.79846e-08
2	1	0	1	0	53.5744	-0.568188	-0.568163	-6.6297e-05	1	6.85162e-05	42	3.599	3.76675e-08
2	0	0	0	0	54.3742	-0.572187	-0.57215	-9.29557e-05	1	6.84101e-05	42	4.3988	5.31846e-08
2	0	0	1	0	55.1739	-0.576186	-0.576173	-0.000132925	1	6.82763e-05	42	5.1985	7.65875e-08
2	0	0	1	0	55.9736	-0.580185	-0.580168	-0.00015035	1	6.81206e-05	42	5.9982	8.7228e-08
2	0	0	0	0	56.7734	-0.584184	-0.584177	-0.000191108	1	6.79409e-05	42	6.798	1.11641e-07
2	0	0	1	0	57.5732	-0.588182	-0.58818	-0.000212867	1	6.7737e-05	42	7.5978	1.25204e-07
2	0	0	0	0	58.373	-0.592181	-0.592189	-0.000251693	1	6.75083e-05	42	8.3976	1.4905e-07
2	0	0	1	0	59.1727	-0.59618	-0.596162	-0.000271998	1	6.72548e-05	42	9.1973	1.62155e-07
2	0	0	1	0	59.9725	-0.600179	-0.600153	-0.000303169	1	6.69767e-05	42	9.9971	1.81948e-07
2	0	0	0	0	60.7722	-0.604178	-0.604157	-0.000339352	1	6.66701e-05	42	10.7968	2.05022e-07
2	0	0	1	0	61.572	-0.608177	-0.608167	-0.000376493	1	6.63396e-05	42	11.5966	2.28971e-07
2	0	0	0	0	62.3718	-0.612175	-0.612151	-0.000409326	1	6.59755e-05	42	12.3964	2.50569e-07
2	0	0	1	0	63.1716	-0.616174	-0.61619	-0.000442182	1	6.55836e-05	42	13.1962	2.72468e-07
2	0	0	1	0	63.9713	-0.620173	-0.620167	-0.00047966	1	6.5164e-05	42	13.9959	2.97469e-07
2	0	0	1	0	64.7711	-0.624172	-0.624159	-0.000519852	1	6.47122e-05	42	14.7957	3.2447e-07
2	0	0	1	0	65.5708	-0.628171	-0.628162	-0.000550793	1	6.42318e-05	42	15.5954	3.45987e-07
2	0	0	0	0	66.3706	-0.63217	-0.632175	-0.000576243	1	6.37265e-05	42	16.3952	3.64287e-07
2	0	0	1	0	67.1704	-0.636168	-0.636156	-0.000606689	1	6.32014e-05	42	17.195	3.85949e-07
2	0	0	0	0	67.9702	-0.640167	-0.640149	-0.000636738	1	6.26492e-05	42	17.9948	4.07607e-07
2	0	0	1	0	68.7699	-0.644166	-0.644131	-0.000676087	1	6.20697e-05	42	18.7945	4.35489e-07
2	0	0	1	0	69.5697	-0.648165	-0.648135	-0.000710537	1	6.14577e-05	42	19.5943	4.60524e-07
2	0	0	0	0	70.3694	-0.652164	-0.652126	-0.000738157	1	6.08212e-05	42	20.394	4.81371e-07
2	0	0	1	0	71.1692	-0.656163	-0.656132	-0.000782803	1	6.01498e-05	42	21.1938	5.13622e-07
2	0	0	0	0	71.969	-0.660161	-0.66013	-0.000817884	1	5.94501e-05	42	21.9936	5.3991e-07
2	0	0	1	0	72.7688	-0.66416	-0.664143	-0.000862142	1	5.87167e-05	42	22.7934	5.72585e-07
2	0	0	1	0	73.5685	-0.668159	-0.668133	-0.000906999	1	5.79489e-05	42	23.5931	6.05995e-07
2	0	0	1	0	74.3683	-0.672158	-0.672118	-0.000945564	1	5.71459e-05	42	24.3929	6.3553e-07
2	0	0	1	0	75.168	-0.676157	-0.676131	-0.00100759	1	5.63021e-05	42	25.1926	6.81263e-07
2	0	0	0	0	75.9678	-0.680156	-0.680127	-0.00104754	1	5.54144e-05	42	25.9924	7.12458e-07
2	0	0	1	0	76.7676	-0.684154	-0.684133	-0.00111082	1	5.44825e-05	42	26.7922	7.59945e-07
2	0	0	0	0	77.5674	-0.688153	-0.68812	-0.00116364	1	5.35068e-05	42	27.592	8.00727e-07
2	0	0	1	0	78.3671	-0.692152	-0.692111	-0.00121804	1	5.24825e-05	42	28.3917	8.43022e-07
2	0	0	1	0	79.1668	-0.696151	-0.69611	-0.00129246	1	5.14073e-05	42	29.1914	8.99694e-07
2	0	0	0	0	79.9666	-0.70015	-0.70011	-0.00135702	1	5.02741e-05	42	29.9912	9.50064e-07
2	0	0	1	0	80.7664	-0.704149	-0.704115	-0.00142422	1	4.90844e-05	42	30.791	1.00281e-06
2	0	0	0	0	81.5662	-0.708147	-0.708116	-0.00149907	1	4.78353e-05	42	31.5908	1.06151e-06
2	0	0	1	0	82.366	-0.712146	-0.712094	-0.00157801	1	4.65241e-05	42	32.3906	1.12369e-06
2	0	0	1	0	83.1657	-0.716145	-0.716094	-0.00167543	1	4.51456e-05	42	33.1903	1.19976e-06
2	0	0	0	0	83.9654	-0.720144	-0.72009	-0.00177136	1	4.36878e-05	42	33.99	1.27554e-06
2	0	0	1	0	84.7652	-0.724143	-0.724104	-0.0020479	1	4.20824e-05	42	34.7898	1.48289e-06
2	0	0	0	0	85.565	-0.728141	-0.7281	-0.00236146	1	4.02336e-05	42	35.5896	1.71938e-06
2	0	0	1	0	86.3648	-0.73214	-0.732129	-0.00279364	1	3.80791e-05	42	36.3894	2.0453e-06
2	0	0	0	0	87.1646	-0.736139	-0.736109	-0.0031441	1	3.5605e-05	42	37.1892	2.3144e-06
2	0	0	1	0	87.9643	-0.740138	-0.74011	-0.00344672	1	3.28694e-05	42	37.9889	2.55095e-06
2	0	0	1	0	88.764	-0.744137	-0.744109	-0.00367666	1	2.99173e-05	42	38.7886	2.73583e-06
2	0	0	0	0	89.5638	-0.748136	-0.748101	-0.00381394	1	2.68191e-05	42	39.5884	2.85321e-06
2	0	0	1	0	90.3636	-0.752135	-0.752095	-0.00393159	1	2.36222e-05	42	40.3882	2.95693e-06
2	0	0	0	0	91.1634	-0.756133	-0.756114	-0.00403303	1	2.03406e-05	42	41.188	3.04943e-06
2	0	0	1	0	91.9631	-0.760132	-0.760103	-0.00416824	1	1.69636e-05	42	41.9877	3.16829e-06
2	0	0	1	0	92.7629	-0.764131	-0.764095	-0.00428721	1	1.34826e-05	42	42.7875	3.27584e-06
2	0	0	0	0	93.5626	-0.76813	-0.76809	-0.00441544	1	9.90424e-06	42	43.5872	3.39145e-06
2	0	0	1	0	94.3624	-0.772129	-0.772098	-0.00461209	1	6.19779e-06	42	44.387	3.56099e-06
2	0	0	0	0	95.1622	-0.776127	-0.776095	-0.00484652	1	2.32117e-06	42	45.1868	3.76136e-06
2	0	0	1	0	95.962	-0.780126	-0.780093	-0.00508395	1	-1.75181e-06	42	45.9866	3.96595e-06
2	0	0	1	0	96.7617	-0.784125	-0.784104	-0.00531552	1	-6.01754e-06	42	46.7863	4.16792e-06
2	0	0	1	0	97.5615	-0.788124	-0.788108	-0.00551203	1	-1.0453e-05	42	47.5861	4.34408e-06
2	0	0	1	0	98.3612	-0.792123	-0.792106	-0.00571171	1	-1.50382e-05	42	48.3858	4.52428e-06
2	0	0	0	0	99.161	-0.796122	-0.796085	-0.00585395	1	-1.97691e-05	42	49.1856	4.66024e-06
2	0	0	1	0	99.9608	-0.80012	-0.800079	-0.00602514	1	-2.46267e-05	42	49.9854	4.82059e-06
2	0	0	0	0	100.761	-0.804119	-0.804066	-0.00620438	1	-2.96256e-05	42	50.7852	4.98873e-06
2	0	0	1	0	101.56	-0.808118	-0.808078	-0.00638335	1	-3.47692e-05	42	51.5849	5.15825e-06
2	0	0	1	0	102.36	-0.812117	-0.812094	-0.00657487	1	-4.00593e-05	42	52.3847	5.33942e-06
2	0	0	0	0	103.16	-0.816116	-0.816076	-0.00676607	1	-4.55021e-05	42	53.1844	5.52163e-06
2	0	0	1	0	103.96	-0.820115	-0.820088	-0.00697786	1	-5.11113e-05	42	53.9842	5.72246e-06
2	0	0	0	0	104.759	-0.824113	-0.824093	-0.00719595	1	-5.68952e-05	42	54.784	5.93013e-06
2	0	0	1	0	105.559	-0.828112	-0.828101	-0.00744963	1	-6.2875e-05	42	55.5838	6.16905e-06
2	0	0	1	0	106.359	-0.832111	-0.832097	-0.0077268	1	-6.90584e-05	42	56.3835	6.42945e-06
2	0	0	1	0	107.159	-0.83611	-0.836102	-0.00795654	1	-7.54565e-05	42	57.1833	6.65248e-06
2	0	0	1	0	107.958	-0.840109	-0.840096	-0.00820127	1	-8.20481e-05	42	57.983	6.88985e-06
2	0	0	0	0	108.758	-0.844108	-0.844105	-0.00844811	1	-8.88378e-05	42	58.7828	7.13109e-06
2	0	0	1	0	109.558	-0.848106	-0.848086	-0.00871308	1	-9.58353e-05	42	59.5826	7.38944e-06
2	0	0	0	0	110.358	-0.852105	-0.852071	-0.00903029	1	-0.00010309	42	60.3824	7.69445e-06
2	0	0	1	0	111.157	-0.856104	-0.856068	-0.00926363	1	-0.000110545	42	61.1821	7.9303e-06
2	0	0	1	0	111.957	-0.860103	-0.860092	-0.00949131	1	-0.000118193	42	61.9819	8.1634e-06
2	0	0	0	0	112.757	-0.864102	-0.864063	-0.00971722	1	-0.000126022	42	62.7816	8.39629e-06
2	0	0	1	0	113.577	-0.8682	-0.868147	-0.00995965	1	-0.00013427	41	63.6014	8.64644e-06
2	0	0	0	0	114.377	-0.872199	-0.872167	-0.0102147	1	-0.000142486	41	64.4012	8.90889e-06
2	0	0	1	0	115.176	-0.876198	-0.876142	-0.010452	1	-0.0001509	41	65.201	9.15743e-06
2	0	0	1	0	115.976	-0.880197	-0.88014	-0.0107831	1	-0.000159549	41	66.0007	9.49067e-06
2	0	0	0	0	116.776	-0.884196	-0.884166	-0.0109977	1	-0.000168411	41	66.8004	9.72378e-06
2	0	0	1	0	117.576	-0.888195	-0.888164	-0.0111532	1	-0.000177438	41	67.6002	9.90584e-06
2	0	0	0	0	118.375	-0.892193	-0.892148	-0.0113227	1	-0.000186587	41	68.4	1.01015e-05
2	0	0	1	0	119.175	-0.896192	-0.896147	-0.0114886	1	-0.000195879	41	69.1998	1.02955e-05
2	0	0	1	0	119.975	-0.900191	-0.900141	-0.0116444	1	-0.000205304	41	69.9995	1.04816e-05
2	0	0	1	0	120.775	-0.90419	-0.904145	-0.0118077	1	-0.000214866	41	70.7993	1.06759e-05
2	0	0	1	0	121.574	-0.908189	-0.908125	-0.011988	1	-0.000224572	41	71.599	1.08866e-05
2	0	0	0	0	122.374	-0.912188	-0.912152	-0.0121753	1	-0.000234431	41	72.3988	1.11057e-05
2	0	0	1	0	123.174	-0.916186	-0.916162	-0.0123557	1	-0.000244433	41	73.1986	1.13198e-05
2	0	0	0	0	123.974	-0.920185	-0.920143	-0.0125506	1	-0.000254579	41	73.9984	1.15483e-05
2	0	0	1	0	124.773	-0.924184	-0.924165	-0.012749	1	-0.000264888	41	74.7981	1.17821e-05
2	0	0	1	0	125.573	-0.928183	-0.928151	-0.0129393	1	-0.000275353	41	75.5979	1.20096e-05
2	0	0	0	0	126.373	-0.932182	-0.932161	-0.0131645	1	-0.00028599	41	76.3976	1.22714e-05
2	0	0	1	0	127.173	-0.936181	-0.936162	-0.0133823	1	-0.000296801	41	77.1974	1.2528e-05
2	0	0	0	0	127.973	-0.940179	-0.940161	-0.013615	1	-0.00030779	41	77.9972	1.28003e-05
2	0	0	1	0	128.772	-0.944178	-0.944139	-0.0138501	1	-0.000318964	41	78.797	1.30764e-05
2	0	0	1	0	129.572	-0.948177	-0.948133	-0.0141273	1	-0.000330349	41	79.5967	1.33946e-05
2	0	0	1	0	130.372	-0.952176	-0.952127	-0.0144213	1	-0.000341961	41	80.3965	1.37309e-05
2	0	0	1	0	131.172	-0.956175	-0.956113	-0.0147479	1	-0.000353821	41	81.1962	1.41007e-05
2	0	0	0	0	131.971	-0.960174	-0.960125	-0.0151234	1	-0.000365958	41	81.996	1.45203e-05
2	0	0	1	0	132.771	-0.964172	-0.964127	-0.0154788	1	-0.000378388	41	82.7958	1.49235e-05
2	0	0	0	0	133.571	-0.968171	-0.968126	-0.015906	1	-0.000391134	41	83.5956	1.5399e-05
2	0	0	1	0	134.371	-0.97217	-0.972103	-0.0163557	1	-0.000404224	41	84.3953	1.58995e-05
2	0	0	1	0	135.17	-0.976169	-0.976108	-0.0168308	1	-0.000417684	41	85.195	1.64286e-05
2	0	0	0	0	135.97	-0.980168	-0.980088	-0.0173085	1	-0.00043154	41	85.9948	1.69638e-05
2	0	0	1	0	136.77	-0.984167	-0.9841	-0.017898	1	-0.00044582	41	86.7946	1.76134e-05
2	0	0	0	0	137.57	-0.988165	-0.988107	-0.0184769	1	-0.000460573	41	87.5944	1.82571e-05
2	0	0	1	0	138.37	-0.992164	-0.992076	-0.0190607	1	-0.00047579	41	88.3942	1.89097e-05
2	0	0	1	0	139.169	-0.996163	-0.996099	-0.0196973	1	-0.0004915	41	89.1939	1.96204e-05
2	0	0	1	0	139.969	-1.00016	-1.00009	-0.0203475	1	-0.000507723	41	89.9937	2.03493e-05
2	0	0	1	0	140.769	-1.00416	-1.00411	-0.0210153	1	-0.000524469	41	90.7934	2.11017e-05
2	0	0	0	0	141.569	-1.00816	-1.00809	-0.0216745	1	-0.000541743	41	91.5932	2.18498e-05
2	0	0	1	0	142.368	-1.01216	-1.01211	-0.0223446	1	-0.000559555	41	92.393	2.26151e-05
2	0	0	0	0	143.168	-1.01616	-1.01611	-0.0230088	1	-0.000577903	41	93.1928	2.33794e-05
2	0	0	1	0	143.968	-1.02016	-1.02008	-0.0236542	1	-0.000596764	41	93.9925	2.41292e-05
2	0	0	1	0	144.768	-1.02416	-1.02407	-0.0242827	1	-0.00061613	41	94.7923	2.48671e-05
2	0	0	0	0	145.567	-1.02815	-1.02809	-0.0248612	1	-0.000635979	41	95.592	2.55596e-05
2	0	0	1	0	146.367	-1.03215	-1.03208	-0.0253841	1	-0.000656268	41	96.3918	2.61985e-05
2	0	0	0	0	147.167	-1.03615	-1.03608	-0.0258385	1	-0.000676948	41	97.1916	2.67707e-05
2	0	0	1	0	147.967	-1.04015	-1.0401	-0.0262437	1	-0.000697971	41	97.9914	2.7296e-05
2	0	0	1	0	148.766	-1.04415	-1.04409	-0.0265401	1	-0.000719256	41	98.7911	2.77102e-05
2	0	0	0	0	149.566	-1.04815	-1.04808	-0.0267448	1	-0.000740737	41	99.5908	2.80307e-05
2	0	0	1	0	150.366	-1.05215	-1.0521	-0.0268253	1	-0.00076233	41	100.391	2.82228e-05
2	0	0	0	0	151.166	-1.05615	-1.05607	-0.0267614	1	-0.000783921	41	101.19	2.82619e-05
2	0	0	1	0	151.966	-1.06014	-1.0601	-0.0265774	1	-0.000805405	41	101.99	2.81746e-05
2	0	0	1	0	152.765	-1.06414	-1.06408	-0.0262161	1	-0.000826655	41	102.79	2.7896e-05
2	0	0	1	0	153.565	-1.06814	-1.06807	-0.0256984	1	-0.000847547	41	103.59	2.74478e-05
2	0	0	1	0	154.365	-1.07214	-1.07208	-0.0250218	1	-0.00086795	41	104.389	2.68253e-05
2	0	0	0	0	155.165	-1.07614	-1.07606	-0.0242084	1	-0.000887751	41	105.189	2.60496e-05
2	0	0	1	0	155.964	-1.08014	-1.08006	-0.0232707	1	-0.000906847	41	105.989	2.51338e-05
2	0	0	0	0	156.764	-1.08414	-1.08406	-0.0222117	1	-0.000925136	41	106.789	2.40789e-05
2	0	0	1	0	157.564	-1.08814	-1.08806	-0.0210845	1	-0.000942538	41	107.588	2.29411e-05
2	0	0	1	0	158.364	-1.09214	-1.09206	-0.0198677	1	-0.000958998	41	108.388	2.16968e-05
2	0	0	0	0	159.163	-1.09613	-1.09607	-0.0186603	1	-0.000974478	41	109.188	2.0453e-05
2	0	0	1	0	159.963	-1.10013	-1.10008	-0.0174981	1	-0.000989004	41	109.988	1.92493e-05
2	0	0	0	0	160.763	-1.10413	-1.10407	-0.0164214	1	-0.00100263	41	110.788	1.81304e-05
2	0	0	1	0	161.563	-1.10813	-1.10807	-0.0154746	1	-0.00101544	41	111.587	1.71469e-05
2	0	0	1	0	162.363	-1.11213	-1.11207	-0.0146621	1	-0.00102755	41	112.387	1.63053e-05
2	0	0	1	0	163.162	-1.11613	-1.11607	-0.0139614	1	-0.00103905	41	113.187	1.5582e-05
2	0	0	1	0	163.962	-1.12013	-1.12007	-0.0133843	1	-0.00105004	41	113.987	1.49913e-05
2	0	0	0	0	164.762	-1.12413	-1.12405	-0.0129161	1	-0.00106061	41	114.786	1.45184e-05
2	0	0	1	0	165.562	-1.12812	-1.12806	-0.0125587	1	-0.00107086	41	115.586	1.4167e-05
2	0	0	0	0	166.361	-1.13212	-1.13206	-0.0122933	1	-0.00108086	41	116.386	1.39168e-05
2	0	0	1	0	167.161	-1.13612	-1.13604	-0.012102	1	-0.00109067	41	117.186	1.37483e-05
2	0	0	1	0	167.961	-1.14012	-1.14006	-0.0119911	1	-0.00110036	41	117.985	1.36706e-05
2	0	0	0	0	168.761	-1.14412	-1.14406	-0.011927	1	-0.00111	41	118.785	1.36452e-05
2	0	0	1	0	169.56	-1.14812	-1.14806	-0.011919	1	-0.0011196	41	119.585	1.36837e-05
2	0	0	0	0	170.36	-1.15212	-1.15205	-0.0119407	1	-0.0011292	41	120.385	1.37563e-05
2	0	0	1	0	171.16	-1.15612	-1.15605	-0.0120344	1	-0.00113885	41	121.185	1.39123e-05
2	0	0	1	0	171.96	-1.16012	-1.16005	-0.0121891	1	-0.0011486	41	121.984	1.414e-05
2	0	0	1	0	172.759	-1.16411	-1.16406	-0.0124256	1	-0.0011585	41	122.784	1.44641e-05
2	0	0	1	0	173.559	-1.16811	-1.16807	-0.0128246	1	-0.00116866	41	123.584	1.498e-05
2	0	0	0	0	174.359	-1.17211	-1.17206	-0.0134341	1	-0.00117923	41	124.384	1.57456e-05
2	0	0	1	0	175.159	-1.17611	-1.17606	-0.0142212	1	-0.00119035	41	125.183	1.67249e-05
2	0	0	0	0	175.959	-1.18011	-1.18007	-0.0151857	1	-0.00120217	41	125.983	1.79201e-05
2	0	0	1	0	176.758	-1.18411	-1.18405	-0.0163551	1	-0.00121485	41	126.783	1.93653e-05
2	0	0	1	0	177.558	-1.18811	-1.18804	-0.0178809	1	-0.00122859	41	127.583	2.12431e-05
2	0	0	0	0	178.358	-1.19211	-1.19205	-0.0199579	1	-0.00124376	41	128.382	2.37908e-05
2	0	0	1	0	179.158	-1.1961	-1.19604	-0.0225682	1	-0.00126082	41	129.182	2.69924e-05
2	0	0	0	0	179.957	-1.2001	-1.20004	-0.0256336	1	-0.00128016	41	129.982	3.07612e-05
2	0	0	1	0	180.757	-1.2041	-1.20405	-0.0289736	1	-0.00130207	41	130.782	3.48855e-05
2	0	0	1	0	181.557	-1.2081	-1.20804	-0.0325006	1	-0.00132673	41	131.581	3.9262e-05
2	0	0	0	0	182.357	-1.2121	-1.21203	-0.0361503	1	-0.00135427	41	132.381	4.38152e-05
2	0	0	1	0	183.156	-1.2161	-1.21602	-0.0396299	1	-0.00138468	41	133.181	4.81907e-05
2	0	0	0	0	183.956	-1.2201	-1.22002	-0.0427355	1	-0.00141774	41	133.981	5.21383e-05
2	0	0	1	0	184.756	-1.2241	-1.22406	-0.0452352	1	-0.00145304	41	134.781	5.53704e-05
2	0	0	1	0	185.556	-1.22809	-1.22803	-0.047151	1	-0.0014901	41	135.58	5.79026e-05
2	0	0	1	0	186.355	-1.23209	-1.23204	-0.0483917	1	-0.00152842	41	136.38	5.96203e-05
2	0	0	1	0	187.155	-1.23609	-1.23604	-0.0490799	1	-0.00156751	41	137.18	6.06645e-05
2	0	0	0	0	187.955	-1.24009	-1.24004	-0.0494377	1	-0.00160699	41	137.98	6.13049e-05
2	0	0	1	0	188.755	-1.24409	-1.24404	-0.0496402	1	-0.0016467	41	138.779	6.17542e-05
2	0	0	0	0	189.555	-1.24809	-1.24803	-0.0497816	1	-0.00168654	41	139.579	6.21291e-05
2	0	0	1	0	190.354	-1.25209	-1.25202	-0.0498481	1	-0.00172647	41	140.379	6.24109e-05
2	0	0	1	0	191.154	-1.25609	-1.25601	-0.0501434	1	-0.00176652	41	141.179	6.29807e-05
2	0	0	0	0	191.954	-1.26009	-1.26001	-0.0505932	1	-0.00180686	41	141.978	6.37481e-05
2	0	0	1	0	192.754	-1.26408	-1.26404	-0.0513527	1	-0.0018477	41	142.778	6.49119e-05
2	0	0	0	0	193.553	-1.26808	-1.26803	-0.0524287	1	-0.00188925	41	143.578	6.64811e-05
2	0	0	1	0	194.353	-1.27208	-1.272	-0.0538674	1	-0.00193184	41	144.378	6.85196e-05
2	0	0	1	0	195.153	-1.27608	-1.27602	-0.0557508	1	-0.00197575	41	145.178	7.11394e-05
2	0	0	1	0	195.953	-1.28008	-1.28001	-0.0581269	1	-0.00202135	41	145.977	7.44033e-05
2	0	0	1	0	196.752	-1.28408	-1.284	-0.0611046	1	-0.00206911	41	146.777	7.84586e-05
2	0	0	0	0	197.552	-1.28808	-1.28799	-0.06468	1	-0.00211949	41	147.577	8.3307e-05
2	0	0	1	0	198.352	-1.29208	-1.29199	-0.0690166	1	-0.00217304	41	148.377	8.91687e-05
2	0	0	0	0	199.152	-1.29608	-1.29601	-0.0741803	1	-0.00223037	41	149.176	9.61382e-05
2	0	0	1	0	199.951	-1.30007	-1.29999	-0.0802495	1	-0.00229219	41	149.976	0.000104324
2	0	0	1	0	200.751	-1.30407	-1.30398	-0.0874338	1	-0.0023593	41	150.776	0.000114012
2	0	0	0	0	201.551	-1.30807	-1.30798	-0.095862	1	-0.00243266	41	151.576	0.000125386
2	0	0	1	0	202.351	-1.31207	-1.31198	-0.105155	1	-0.00251309	41	152.375	0.000137961
2	0	0	0	0	203.171	-1.31617	-1.31608	-0.116547	1	-0.00260417	40	153.195	0.000153386
2	0	0	1	0	203.97	-1.32017	-1.32009	-0.129821	1	-0.00270265	40	153.995	0.000171375
2	0	0	1	0	204.77	-1.32417	-1.32409	-0.143811	1	-0.00281203	40	154.795	0.000190417
2	0	0	0	0	205.57	-1.32817	-1.32807	-0.158742	1	-0.00293319	40	155.594	0.000210821
2	0	0	1	0	206.37	-1.33216	-1.33209	-0.176697	1	-0.00306725	40	156.394	0.000235376
2	0	0	0	0	207.169	-1.33616	-1.33609	-0.198284	1	-0.0032179	40	157.194	0.000264925
2	0	0	1	0	207.969	-1.34016	-1.34006	-0.21885	1	-0.0033846	40	157.994	0.000293273
2	0	0	1	0	208.769	-1.34416	-1.34408	-0.243597	1	-0.00356939	40	158.793	0.000327414
2	0	0	1	0	209.569	-1.34816	-1.34808	-0.27203	1	-0.0037764	40	159.593	0.000366718
2	0	0	0	1	210.049	-1.34946	-1.34939	-0.280628	2	-0.00391043	40	160.074	0.000378677
2	0	0	1	1	210.849	-1.34546	-1.34538	-0.259269	2	-0.0041258	40	160.873	0.000348814
2	0	0	1	1	211.648	-1.34146	-1.34138	-0.244005	2	-0.00432618	40	161.673	0.000327304
2	0	0	1	1	212.448	-1.33746	-1.33738	-0.227528	2	-0.0045146	40	162.473	0.000304291
2	0	0	1	1	213.248	-1.33346	-1.3334	-0.211243	2	-0.00468939	40	163.273	0.000281671
2	0	0	0	1	214.048	-1.32947	-1.3294	-0.196479	2	-0.00485211	40	164.072	0.000261199
2	0	0	1	1	214.848	-1.32547	-1.3254	-0.184609	2	-0.00500421	40	164.872	0.000244681
2	0	0	0	1	215.647	-1.32147	-1.3214	-0.171918	2	-0.0051464	40	165.672	0.000227173
2	0	0	1	1	216.447	-1.31747	-1.31739	-0.159736	2	-0.00527874	40	166.472	0.000210435
2	0	0	1	1	217.247	-1.31347	-1.31338	-0.148413	2	-0.00540177	40	167.271	0.000194923
2	0	0	0	1	218.047	-1.30947	-1.3094	-0.138912	2	-0.00551643	40	168.071	0.000181891
2	0	0	1	1	218.846	-1.30547	-1.30539	-0.129416	2	-0.00562357	40	168.871	0.000168938
2	0	0	0	1	219.646	-1.30147	-1.30138	-0.12148	2	-0.00572384	40	169.671	0.000158092
2	0	0	1	1	220.446	-1.29747	-1.2974	-0.114327	2	-0.00581805	40	170.471	0.000148328
2	0	0	1	1	221.246	-1.29348	-1.29343	-0.107408	2	-0.00590648	40	171.27	0.000138925
2	0	0	1	1	222.045	-1.28948	-1.28939	-0.100778	2	-0.00598954	40	172.07	0.000129942
2	0	0	1	1	222.845	-1.28548	-1.2854	-0.0953276	2	-0.00606774	40	172.87	0.000122534
2	0	0	0	1	223.645	-1.28148	-1.28141	-0.0899693	2	-0.00614167	40	173.67	0.000115287
2	0	0	1	1	224.445	-1.27748	-1.27741	-0.0851066	2	-0.00621149	40	174.469	0.000108716
2	0	0	0	1	225.245	-1.27348	-1.27342	-0.0807129	2	-0.00627762	40	175.269	0.000102782
2	0	0	1	1	226.044	-1.26948	-1.26943	-0.0766689	2	-0.00634037	40	176.069	9.73255e-05
2	0	0	1	1	226.844	-1.26548	-1.26543	-0.0730454	2	-0.00640009	40	176.869	9.24336e-05
2	0	0	0	1	227.644	-1.26149	-1.26141	-0.0694965	2	-0.0064569	40	177.668	8.76632e-05
2	0	0	1	1	228.444	-1.25749	-1.25743	-0.0661766	2	-0.00651104	40	178.468	8.32125e-05
2	0	0	0	1	229.243	-1.25349	-1.25344	-0.0631513	2	-0.00656268	40	179.268	7.91567e-05
2	0	0	1	1	230.043	-1.24949	-1.24944	-0.060455	2	-0.00661201	40	180.068	7.55346e-05
2	0	0	1	1	230.843	-1.24549	-1.24544	-0.0578389	2	-0.00665921	40	180.867	7.20347e-05
2	0	0	0	1	231.643	-1.24149	-1.24143	-0.0553806	2	-0.00670441	40	181.667	6.87513e-05
2	0	0	1	1	232.442	-1.23749	-1.23744	-0.0530743	2	-0.00674766	40	182.467	6.56764e-05
2	0	0	0	1	233.242	-1.23349	-1.23345	-0.0509124	2	-0.00678914	40	183.267	6.27978e-05
2	0	0	1	1	234.042	-1.22949	-1.22944	-0.0488695	2	-0.00682893	40	184.067	6.00819e-05
2	0	0	0	1	234.842	-1.2255	-1.22542	-0.0469282	2	-0.00686715	40	184.866	5.75066e-05
2	0	0	1	1	235.641	-1.2215	-1.22143	-0.0451445	2	-0.00690389	40	185.666	5.51408e-05
2	0	0	1	1	236.461	-1.2174	-1.21735	-0.0432469	2	-0.00694001	41	186.486	5.26465e-05
2	0	0	0	1	237.261	-1.2134	-1.21332	-0.0415796	2	-0.00697392	41	187.286	5.04493e-05
2	0	0	1	1	238.061	-1.2094	-1.20933	-0.0399643	2	-0.00700643	41	188.085	4.83301e-05
2	0	0	0	1	238.861	-1.2054	-1.20535	-0.0384141	2	-0.0070377	41	188.885	4.63023e-05
2	0	0	1	1	239.66	-1.2014	-1.20135	-0.0368803	2	-0.00706771	41	189.685	4.43061e-05
2	0	0	1	1	240.46	-1.1974	-1.19734	-0.0354373	2	-0.00709653	41	190.485	4.24305e-05
2	0	0	0	1	241.26	-1.19341	-1.19333	-0.0340011	2	-0.00712421	41	191.284	4.05746e-05
2	0	0	1	1	242.06	-1.18941	-1.18933	-0.0326288	2	-0.00715077	41	192.084	3.88064e-05
2	0	0	0	1	242.859	-1.18541	-1.18534	-0.0312637	2	-0.00717624	41	192.884	3.70579e-05
2	0	0	1	1	243.659	-1.18141	-1.18134	-0.0299501	2	-0.00720064	41	193.684	3.53814e-05
2	0	0	1	1	244.459	-1.17741	-1.17736	-0.0286546	2	-0.007224	41	194.483	3.37369e-05
2	0	0	1	1	245.259	-1.17341	-1.17336	-0.0273909	2	-0.00724632	41	195.283	3.21393e-05
2	0	0	1	1	246.058	-1.16941	-1.16937	-0.0261508	2	-0.00726765	41	196.083	3.05799e-05
2	0	0	0	1	246.858	-1.16541	-1.16536	-0.0249593	2	-0.00728802	41	196.883	2.90865e-05
2	0	0	1	1	247.658	-1.16141	-1.16136	-0.023786	2	-0.00730743	41	197.683	2.7624e-05
2	0	0	0	1	248.458	-1.15742	-1.15735	-0.0226512	2	-0.00732592	41	198.482	2.62154e-05
2	0	0	1	1	249.257	-1.15342	-1.15336	-0.0215568	2	-0.00734352	41	199.282	2.48628e-05
2	0	0	1	1	250.057	-1.14942	-1.14936	-0.0205094	2	-0.00736026	41	200.082	2.35727e-05
2	0	0	0	1	250.857	-1.14542	-1.14539	-0.0195047	2	-0.00737618	41	200.882	2.23405e-05
2	0	0	1	1	251.657	-1.14142	-1.14138	-0.0185437	2	-0.00739132	41	201.681	2.11654e-05
2	0	0	0	1	252.457	-1.13742	-1.13735	-0.0176263	2	-0.0074057	41	202.481	2.00473e-05
2	0	0	1	1	253.256	-1.13342	-1.13338	-0.0167774	2	-0.00741939	41	203.281	1.90151e-05
2	0	0	1	1	254.056	-1.12942	-1.12938	-0.0159492	2	-0.0074324	41	204.081	1.80127e-05
2	0	0	0	1	254.856	-1.12543	-1.12536	-0.0151329	2	-0.00744475	41	204.88	1.703e-05
2	0	0	1	1	255.656	-1.12143	-1.12137	-0.0143413	2	-0.00745646	41	205.68	1.60818e-05
2	0	0	0	1	256.455	-1.11743	-1.11735	-0.0135618	2	-0.00746754	41	206.48	1.51534e-05
2	0	0	1	1	257.255	-1.11343	-1.11336	-0.0127623	2	-0.00747799	41	207.28	1.4209e-05
2	0	0	1	1	258.055	-1.10943	-1.10938	-0.0119834	2	-0.00748781	41	208.08	1.32941e-05
2	0	0	1	1	258.855	-1.10543	-1.10537	-0.0111792	2	-0.00749699	41	208.879	1.23572e-05
2	0	0	1	1	259.654	-1.10143	-1.10136	-0.0103679	2	-0.00750553	41	209.679	1.14188e-05
2	0	0	0	1	260.454	-1.09743	-1.09737	-0.00953575	2	-0.00751341	41	210.479	1.04643e-05
2	0	0	1	1	261.254	-1.09343	-1.09336	-0.00870735	2	-0.00752062	41	211.279	9.5203e-06
2	0	0	0	1	262.054	-1.08944	-1.08937	-0.00787377	2	-0.00752716	41	212.078	8.57744e-06
2	0	0	1	1	262.854	-1.08544	-1.08538	-0.00705323	2	-0.00753305	41	212.878	7.65541e-06
2	0	0	1	1	263.653	-1.08144	-1.08137	-0.00627395	2	-0.00753829	41	213.678	6.78445e-06
2	0	0	0	1	264.453	-1.07744	-1.07737	-0.00554332	2	-0.00754292	41	214.478	5.97221e-06
2	0	0	1	1	265.253	-1.07344	-1.07338	-0.00488561	2	-0.007547	41	215.277	5.24411e-06
2	0	0	0	1	266.073	-1.06934	-1.06928	-0.00430193	2	-0.00755067	42	216.097	4.59998e-06
2	0	0	1	1	266.872	-1.06534	-1.06528	-0.00380877	2	-0.00755382	42	216.897	4.05741e-06
2	0	0	1	1	267.672	-1.06134	-1.06127	-0.00336976	2	-0.00755661	42	217.697	3.57622e-06
2	0	0	1	1	268.472	-1.05734	-1.05727	-0.00300868	2	-0.00755907	42	218.496	3.18098e-06
2	0	0	1	1	269.272	-1.05335	-1.05328	-0.00269439	2	-0.00756126	42	219.296	2.83796e-06
2	0	0	0	1	270.071	-1.04935	-1.04929	-0.00242259	2	-0.00756322	42	220.096	2.54201e-06
2	0	0	1	1	270.871	-1.04535	-1.04529	-0.00217611	2	-0.00756498	42	220.896	2.27466e-06
2	0	0	0	1	271.671	-1.04135	-1.04127	-0.00193205	2	-0.00756654	42	221.696	2.0118e-06
2	0	0	1	1	272.471	-1.03735	-1.03728	-0.00171038	2	-0.00756792	42	222.495	1.77414e-06
2	0	0	1	1	273.27	-1.03335	-1.03328	-0.00151264	2	-0.00756913	42	223.295	1.56299e-06
2	0	0	0	1	274.07	-1.02935	-1.02927	-0.00133748	2	-0.00757019	42	224.095	1.37663e-06
2	0	0	1	1	274.87	-1.02535	-1.02528	-0.0011878	2	-0.00757111	42	224.895	1.21783e-06
2	0	0	0	1	275.67	-1.02136	-1.02129	-0.00106045	2	-0.00757193	42	225.694	1.08303e-06
2	0	0	1	1	276.47	-1.01736	-1.0173	-0.000917548	2	-0.00757264	42	226.494	9.33419e-07
2	0	0	1	1	277.269	-1.01336	-1.01331	-0.000772013	2	-0.00757323	42	227.294	7.82291e-07
2	0	0	0	1	278.069	-1.00936	-1.00926	-0.000619308	2	-0.0075737	42	228.094	6.25045e-07
2	0	0	1	1	278.869	-1.00536	-1.00529	-0.000469872	2	-0.00757405	42	228.893	4.72359e-07
2	0	0	0	1	279.669	-1.00136	-1.0013	-0.000305517	2	-0.00757428	42	229.693	3.05913e-07
2	0	0	1	1	280.468	-0.997363	-0.997319	-0.00012554	2	-0.00757437	42	230.493	1.25203e-07
2	0	0	0	1	281.268	-0.993364	-0.99329	6.61928e-05	2	-0.00757431	42	0.5999	-6.57486e-08
2	1	0	1	1	282.068	-0.989365	-0.989306	0.000280483	2	-0.00757409	42	1.3996	-2.77484e-07
2	1	0	1	1	282.868	-0.985366	-0.985306	0.000527193	2	-0.00757368	42	2.1994	-5.19447e-07
2	1	0	0	1	283.667	-0.981367	-0.981295	0.000838302	2	-0.00757305	42	2.9991	-8.22622e-07
2	1	0	1	1	284.467	-0.977368	-0.977312	0.00120946	2	-0.00757215	42	3.7989	-1.18202e-06
2	1	0	0	1	285.267	-0.97337	-0.973305	0.00167777	2	-0.00757091	42	4.5987	-1.63298e-06
2	1	0	1	1	286.067	-0.969371	-0.96931	0.00225941	2	-0.00756926	42	5.3985	-2.19007e-06
2	1	0	1	1	286.866	-0.965372	-0.965298	0.00298905	2	-0.00756708	42	6.1982	-2.88533e-06
2	1	0	0	1	287.666	-0.961373	-0.961322	0.00387291	2	-0.00756426	42	6.9979	-3.72311e-06
2	1	0	1	1	288.466	-0.957374	-0.957316	0.00492524	2	-0.00756067	42	7.7977	-4.71501e-06
2	1	0	0	1	289.266	-0.953376	-0.953322	0.00614113	2	-0.00755616	42	8.5975	-5.85448e-06
2	1	0	1	1	290.066	-0.949377	-0.949322	0.00750439	2	-0.00755062	42	9.3973	-7.12408e-06
2	1	0	0	1	290.865	-0.945378	-0.945336	0.00896007	2	-0.00754395	42	10.1971	-8.47028e-06
2	1	0	1	1	291.685	-0.941279	-0.94123	0.0105218	2	-0.00753585	41	11.0168	-9.90342e-06
2	1	0	1	1	292.485	-0.93728	-0.93723	0.0120751	2	-0.00752672	41	11.8165	-1.13172e-05
2	1	0	0	1	293.285	-0.933281	-0.933218	0.0136353	2	-0.00751634	41	12.6163	-1.27247e-05
2	1	0	1	1	294.084	-0.929283	-0.929211	0.0151776	2	-0.00750471	41	13.4161	-1.41032e-05
2	1	0	0	1	294.884	-0.925284	-0.925217	0.0166667	2	-0.00749188	41	14.2159	-1.54203e-05
2	1	0	1	1	295.684	-0.921285	-0.921229	0.0181332	2	-0.00747786	41	15.0156	-1.67048e-05
2	1	0	1	1	296.484	-0.917286	-0.917234	0.0195883	2	-0.00746266	41	15.8154	-1.7967e-05
2	1	0	0	1	297.283	-0.913287	-0.913243	0.0210517	2	-0.00744629	41	16.6151	-1.92253e-05
2	1	0	1	1	298.083	-0.909288	-0.909233	0.0225596	2	-0.00742874	41	17.4149	-2.05119e-05
2	1	0	0	1	298.883	-0.90529	-0.905239	0.024116	2	-0.00740995	41	18.2147	-2.18307e-05
2	1	0	1	1	299.683	-0.901291	-0.901245	0.0257147	2	-0.00738989	41	19.0145	-2.31752e-05
2	1	0	1	1	300.482	-0.897292	-0.897221	0.0273678	2	-0.00736853	41	19.8142	-2.4555e-05
2	1	0	1	1	301.282	-0.893293	-0.893231	0.0290406	2	-0.00734584	41	20.614	-2.594e-05
2	1	0	1	1	302.082	-0.889294	-0.889235	0.030666	2	-0.00732182	41	21.4137	-2.72693e-05
2	1	0	0	1	302.882	-0.885296	-0.885245	0.0322115	2	-0.00729653	41	22.2135	-2.8515e-05
2	1	0	1	1	303.682	-0.881297	-0.881247	0.033603	2	-0.00727005	41	23.0133	-2.96125e-05
2	1	0	0	1	304.481	-0.877298	-0.877239	0.0347559	2	-0.00724256	41	23.8131	-3.04892e-05
2	1	0	1	1	305.281	-0.873299	-0.873235	0.0355703	2	-0.00721428	41	24.6128	-3.10612e-05
2	1	0	1	1	306.081	-0.8693	-0.86927	0.0360615	2	-0.00718548	41	25.4125	-3.13472e-05
2	1	0	0	1	306.881	-0.865301	-0.865281	0.036212	2	-0.00715642	41	26.2123	-3.13335e-05
2	1	0	1	1	307.68	-0.861302	-0.861276	0.036051	2	-0.00712738	41	27.0121	-3.10499e-05
2	1	0	0	1	308.48	-0.857304	-0.857273	0.0356213	2	-0.00709858	41	27.8119	-3.05372e-05
2	1	0	1	1	309.28	-0.853305	-0.853279	0.0349537	2	-0.00707023	41	28.6117	-2.98252e-05
2	1	0	1	1	310.08	-0.849306	-0.849285	0.0340924	2	-0.0070425	41	29.4114	-2.89541e-05
2	1	0	0	1	310.879	-0.845307	-0.845269	0.0331012	2	-0.00701552	41	30.2111	-2.79794e-05
2	1	0	1	1	311.679	-0.841308	-0.841297	0.031984	2	-0.00698938	41	31.0109	-2.6908e-05
2	1	0	0	1	312.479	-0.837309	-0.837292	0.030806	2	-0.00696417	41	31.8107	-2.57936e-05
2	1	0	1	1	313.279	-0.833311	-0.833288	0.0295794	2	-0.00693993	41	32.6105	-2.46481e-05
2	1	0	0	1	314.079	-0.829312	-0.829261	0.0283561	2	-0.00691667	41	33.4103	-2.35146e-05
2	1	0	1	1	314.878	-0.825313	-0.825274	0.0271225	2	-0.0068944	41	34.21	-2.23835e-05
2	1	0	1	1	315.678	-0.821314	-0.821267	0.0259363	2	-0.00687311	41	35.0097	-2.13007e-05
2	1	0	0	1	316.478	-0.817315	-0.817271	0.0247742	2	-0.00685275	41	35.8095	-2.02472e-05
2	1	0	1	1	317.278	-0.813317	-0.813277	0.0236541	2	-0.00683331	41	36.6093	-1.92374e-05
2	1	0	0	1	318.077	-0.809318	-0.809285	0.0225841	2	-0.00681475	41	37.4091	-1.82769e-05
2	1	0	1	1	318.877	-0.805319	-0.805276	0.0215511	2	-0.00679703	41	38.2089	-1.73546e-05
2	1	0	1	1	319.677	-0.80132	-0.801277	0.0205732	2	-0.00678012	41	39.0086	-1.64848e-05
2	1	0	0	1	320.477	-0.797321	-0.797265	0.0196492	2	-0.00676398	41	39.8083	-1.56656e-05
2	1	0	1	1	321.276	-0.793322	-0.79329	0.018764	2	-0.00674855	41	40.6081	-1.48853e-05
2	1	0	0	1	322.076	-0.789324	-0.789278	0.0179487	2	-0.00673381	41	41.4079	-1.41665e-05
2	1	0	1	1	322.876	-0.785325	-0.785282	0.0171849	2	-0.00671969	41	42.2077	-1.3495e-05
2	1	0	0	1	323.676	-0.781326	-0.781275	0.0164801	2	-0.00670617	41	43.0075	-1.28755e-05
2	1	0	1	1	324.475	-0.777327	-0.777286	0.0158292	2	-0.00669319	41	43.8072	-1.23038e-05
2	1	0	1	1	325.275	-0.773328	-0.773286	0.0152325	2	-0.00668071	41	44.6069	-1.17791e-05
2	1	0	0	1	326.075	-0.769329	-0.769279	0.014728	2	-0.00666867	41	45.4067	-1.13299e-05
2	1	0	1	1	326.875	-0.765331	-0.765288	0.0143631	2	-0.00665695	41	46.2065	-1.09919e-05
2	1	0	0	1	327.675	-0.761332	-0.761278	0.0139486	2	-0.00664556	41	47.0063	-1.06188e-05
2	1	0	1	1	328.474	-0.757333	-0.757298	0.01361	2	-0.00663448	41	47.806	-1.03068e-05
2	1	0	1	1	329.274	-0.753334	-0.753293	0.0133484	2	-0.00662364	41	48.6058	-1.00553e-05
2	1	0	0	1	330.074	-0.749335	-0.749282	0.0131445	2	-0.00661298	41	49.4055	-9.84896e-06
2	1	0	1	1	330.874	-0.745336	-0.745294	0.0130143	2	-0.00660245	41	50.2053	-9.69945e-06
2	1	0	0	1	331.673	-0.741338	-0.741289	0.0129703	2	-0.006592	41	51.0051	-9.61472e-06
2	1	0	1	1	332.473	-0.737339	-0.73729	0.0130035	2	-0.00658154	41	51.8049	-9.58732e-06
2	1	0	1	1	333.273	-0.73334	-0.733301	0.0131101	2	-0.00657103	41	52.6046	-9.61362e-06
2	1	0	1	1	334.073	-0.729341	-0.729294	0.0133203	2	-0.00656039	41	53.4044	-9.7144e-06
2	1	0	1	1	334.872	-0.725342	-0.725308	0.0136104	2	-0.00654954	41	54.2041	-9.87175e-06
2	1	0	0	1	335.672	-0.721344	-0.721292	0.014031	2	-0.0065384	41	55.0039	-1.01204e-05
2	1	0	1	1	336.472	-0.717345	-0.717302	0.0145685	2	-0.00652689	41	55.8037	-1.045e-05
2	1	0	0	1	337.272	-0.713346	-0.71329	0.0152476	2	-0.00651488	41	56.6035	-1.0876e-05
2	1	0	1	1	338.071	-0.709347	-0.709301	0.0159901	2	-0.00650228	41	57.4032	-1.13418e-05
2	1	0	1	1	338.871	-0.705348	-0.705309	0.0165561	2	-0.00648914	41	58.203	-1.16771e-05
2	1	0	0	1	339.671	-0.701349	-0.701304	0.0164549	2	-0.0064758	41	59.0027	-1.15399e-05
2	1	0	1	1	340.471	-0.697351	-0.697313	0.0154397	2	-0.00646287	41	59.8025	-1.07663e-05
2	1	0	0	1	341.271	-0.693352	-0.693308	0.0126632	2	-0.00645149	41	60.6023	-8.77946e-06
2	1	0	1	1	342.07	-0.689353	-0.68931	0.0107389	2	-0.00644216	41	61.4021	-7.40246e-06
2	1	0	1	1	342.87	-0.685354	-0.685319	0.00952546	2	-0.00643403	41	62.2018	-6.52797e-06
2	1	0	0	1	343.67	-0.681355	-0.681312	0.00859361	2	-0.00642675	41	63.0015	-5.85493e-06
2	1	0	1	1	344.47	-0.677356	-0.677293	0.00769496	2	-0.00642022	41	63.8013	-5.21174e-06
2	1	0	0	1	345.269	-0.673358	-0.673301	0.00710984	2	-0.00641427	41	64.6011	-4.78707e-06
2	1	0	1	1	346.069	-0.669359	-0.669305	0.00675183	2	-0.00640868	41	65.4009	-4.51904e-06
2	1	0	0	1	346.869	-0.66536	-0.665307	0.00656515	2	-0.00640331	41	66.2007	-4.36784e-06
2	1	0	1	1	347.669	-0.661361	-0.661328	0.00628809	2	-0.00639813	41	67.0004	-4.15849e-06
2	1	0	1	1	348.468	-0.657362	-0.657337	0.0060724	2	-0.00639315	41	67.8001	-3.99162e-06
2	1	0	0	1	349.268	-0.653363	-0.653333	0.00590217	2	-0.00638832	41	68.5999	-3.85608e-06
2	1	0	1	1	350.068	-0.649365	-0.649319	0.0057423	2	-0.00638362	41	69.3997	-3.72859e-06
2	1	0	0	1	350.868	-0.645366	-0.645329	0.00560065	2	-0.00637906	41	70.1995	-3.61426e-06
2	1	0	1	1	351.668	-0.641367	-0.641326	0.00550504	2	-0.00637459	41	70.9993	-3.53052e-06
2	1	0	1	1	352.467	-0.637368	-0.637338	0.00536125	2	-0.00637021	41	71.799	-3.41693e-06
2	1	0	0	1	353.267	-0.633369	-0.633335	0.00528862	2	-0.00636591	41	72.5987	-3.34947e-06
2	1	0	1	1	354.067	-0.62937	-0.629342	0.00519686	2	-0.00636169	41	73.3985	-3.2706e-06
2	1	0	0	1	354.867	-0.625372	-0.625345	0.0050825	2	-0.00635754	41	74.1983	-3.17831e-06
2	1	0	1	1	355.666	-0.621373	-0.621357	0.00500502	2	-0.00635346	41	74.9981	-3.1099e-06
2	1	0	1	1	356.466	-0.617374	-0.617358	0.00492283	2	-0.00634945	41	75.7978	-3.03915e-06
2	1	0	1	1	357.266	-0.613375	-0.613348	0.00487227	2	-0.0063455	41	76.5976	-2.9884e-06
2	1	0	1	1	358.066	-0.609376	-0.609337	0.00478558	2	-0.00634159	41	77.3973	-2.91604e-06
2	1	0	0	1	358.865	-0.605377	-0.605347	0.00473305	2	-0.00633774	41	78.1971	-2.86514e-06
2	1	0	1	1	359.665	-0.601379	-0.60134	0.00464898	2	-0.00633396	41	78.9969	-2.79562e-06
2	1	0	0	1	360.465	-0.59738	-0.597349	0.00461252	2	-0.00633022	41	79.7967	-2.75529e-06
2	1	0	1	1	361.265	-0.593381	-0.593331	0.00454104	2	-0.00632653	41	80.5964	-2.69434e-06
2	1	0	1	1	362.084	-0.589282	-0.589243	0.00449732	2	-0.00632278	41	81.4162	-2.65002e-06
2	1	0	0	1	362.904	-0.585183	-0.585159	0.00444718	2	-0.00631907	42	82.2359	-2.60231e-06
2	1	0	1	1	363.704	-0.581185	-0.581159	0.00441686	2	-0.00631549	42	83.0357	-2.5669e-06
2	1	0	0	1	364.504	-0.577186	-0.577172	0.00435885	2	-0.00631194	42	83.8355	-2.5158e-06
2	1	0	1	1	365.304	-0.573187	-0.573167	0.00433178	2	-0.00630843	42	84.6353	-2.48283e-06
2	1	0	1	1	366.103	-0.569188	-0.569147	0.00426351	2	-0.00630497	42	85.435	-2.42656e-06
2	1	0	0	1	366.903	-0.565189	-0.565153	0.00422146	2	-0.00630155	42	86.2347	-2.38577e-06
2	1	0	1	1	367.703	-0.56119	-0.56115	0.00414885	2	-0.00629816	42	87.0345	-2.32813e-06
2	1	0	0	1	368.503	-0.557192	-0.557163	0.00408951	2	-0.00629483	42	87.8343	-2.27852e-06
2	1	0	1	1	369.302	-0.553193	-0.553183	0.00405611	2	-0.00629154	42	88.6341	-2.24377e-06
2	1	0	0	1	370.102	-0.549194	-0.549152	0.0039771	2	-0.00628829	42	89.4339	-2.18403e-06
2	1	0	1	1	370.902	-0.545195	-0.545182	0.00393907	2	-0.0062851	42	90.2336	-2.14751e-06
2	1	0	1	1	371.702	-0.541196	-0.541162	0.00389323	2	-0.00628194	42	91.0333	-2.10687e-06
2	1	0	0	1	372.501	-0.537197	-0.537177	0.0038444	2	-0.0062788	42	91.8331	-2.06512e-06
2	1	0	1	1	373.301	-0.533199	-0.533169	0.00381294	2	-0.00627571	42	92.6329	-2.03294e-06
2	1	0	0	1	374.101	-0.5292	-0.529196	0.00379838	2	-0.00627263	42	93.4327	-2.01009e-06
2	1	0	1	1	374.901	-0.525201	-0.52518	0.00374004	2	-0.00626959	42	94.2325	-1.96419e-06
2	1	0	1	1	375.7	-0.521202	-0.521181	0.00370488	2	-0.00626658	42	95.0322	-1.93091e-06
2	1	0	0	1	376.5	-0.517203	-0.517174	0.00366889	2	-0.0062636	42	95.8319	-1.89745e-06
2	1	0	1	1	377.3	-0.513204	-0.513179	0.00363655	2	-0.00626064	42	96.6317	-1.8662e-06
2	1	0	0	1	378.1	-0.509206	-0.509191	0.00359815	2	-0.00625772	42	97.4315	-1.83214e-06
2	1	0	1	1	378.9	-0.505207	-0.505176	0.00356386	2	-0.00625482	42	98.2313	-1.80038e-06
2	1	0	1	1	379.699	-0.501208	-0.50118	0.00352842	2	-0.00625195	42	99.031	-1.76837e-06
2	1	0	1	1	380.499	-0.497209	-0.497161	0.00349977	2	-0.0062491	42	99.8308	-1.73995e-06
2	1	0	1	1	381.299	-0.49321	-0.493163	0.00346938	2	-0.00624628	42	100.63	-1.71097e-06
2	1	0	0	1	382.099	-0.489211	-0.48918	0.00342958	2	-0.00624349	42	101.43	-1.67768e-06
2	1	0	1	1	382.898	-0.485213	-0.485173	0.00340705	2	-0.00624073	42	102.23	-1.65301e-06
2	1	0	0	1	383.698	-0.481214	-0.481154	0.00338448	2	-0.00623799	42	103.03	-1.62845e-06
2	1	0	1	1	384.498	-0.477215	-0.477184	0.00335437	2	-0.00623527	42	103.83	-1.60065e-06
2	1	0	1	1	385.298	-0.473216	-0.473152	0.00335074	2	-0.00623257	42	104.629	-1.58541e-06
2	1	0	0	1	386.097	-0.469217	-0.469159	0.00330851	2	-0.00622987	42	105.429	-1.55222e-06
2	1	0	1	1	386.897	-0.465218	-0.46516	0.00327207	2	-0.00622721	42	106.229	-1.52204e-06
2	1	0	0	1	387.697	-0.46122	-0.461165	0.0032667	2	-0.00622457	42	107.029	-1.50649e-06
2	1	0	1	1	388.497	-0.457221	-0.457198	0.00323286	2	-0.00622195	42	107.828	-1.47806e-06
2	1	0	1	1	389.296	-0.453222	-0.453174	0.00320633	2	-0.00621935	42	108.628	-1.45302e-06
2	1	0	0	1	390.096	-0.449223	-0.449183	0.00317992	2	-0.00621676	42	109.428	-1.42837e-06
2	1	0	1	1	390.896	-0.445224	-0.445167	0.00316463	2	-0.0062142	42	110.228	-1.40879e-06
2	1	0	0	1	391.696	-0.441225	-0.441167	0.0031476	2	-0.00621164	42	111.027	-1.38862e-06
2	1	0	1	1	392.496	-0.437227	-0.437175	0.00313168	2	-0.0062091	42	111.827	-1.36909e-06
2	1	0	0	1	393.295	-0.433228	-0.433188	0.00310662	2	-0.00620658	42	112.627	-1.34575e-06
2	1	0	1	1	394.095	-0.429229	-0.429183	0.00308419	2	-0.00620407	42	113.427	-1.32368e-06
2	1	0	1	1	394.895	-0.42523	-0.425204	0.00306425	2	-0.00620158	42	114.226	-1.30293e-06
2	1	0	0	1	395.695	-0.421231	-0.42118	0.00305071	2	-0.00619911	42	115.026	-1.2849e-06
2	1	0	1	1	396.494	-0.417233	-0.417194	0.00303744	2	-0.00619664	42	115.826	-1.2672e-06
2	1	0	0	1	397.294	-0.413234	-0.413184	0.00302169	2	-0.00619419	42	116.626	-1.24851e-06
2	1	0	1	1	398.094	-0.409235	-0.409174	0.00300574	2	-0.00619176	42	117.426	-1.22987e-06
2	1	0	1	1	398.884	-0.405286	-0.40522	0.0029853	2	-0.00618936	42	118.215	-1.20971e-06
2	1	0	1	1	398.975	-0.404786	-0.404738	0.00309237	2	-0.00618909	42	118.306	-1.2516e-06