File: Fig 6/Fig 6_bf-Fe3O4.mpt
mode	ox/red	error	control changes	counter inc.	time/s	control/V	Ewe/V	<I>/mA	cycle number	(Q-Qo)/C	I Range	step time/s	P/W
2	1	1	1	0	0.000000000000000E+000	-0.300321	-0.300436	0.00779488	1	0.0000000E+000	41	0.000000000000000E+000	-2.34186e-06
2	1	0	0	0	0.7298	-0.30397	-0.30405	0.00110406	1	1.57094e-06	42	0.6098	-3.35691e-07
2	1	0	1	0	1.5296	-0.307969	-0.30806	0.000629187	1	2.154e-06	42	1.4096	-1.93827e-07
2	1	0	0	0	2.3294	-0.311968	-0.312072	0.000433878	1	2.49925e-06	42	2.2094	-1.35401e-07
2	1	0	1	0	3.1291	-0.315966	-0.316062	0.000328979	1	2.73014e-06	42	3.0091	-1.03978e-07
2	1	0	1	0	3.9288	-0.319965	-0.320073	0.000254664	1	2.88825e-06	42	3.8088	-8.15112e-08
2	1	0	0	0	4.7286	-0.323964	-0.324064	0.000197515	1	2.99266e-06	42	4.6086	-6.40075e-08
2	1	0	1	0	5.5284	-0.327963	-0.328034	0.000146385	1	3.05784e-06	42	5.4084	-4.80192e-08
2	1	0	1	0	6.3281	-0.331961	-0.332045	0.00010813	1	3.08941e-06	42	6.2081	-3.59042e-08
2	1	0	0	0	7.1278	-0.33596	-0.336039	7.41557e-05	1	3.09328e-06	42	0.000000000000000E+000	-2.49192e-08
2	1	0	1	0	7.9276	-0.339959	-0.340061	4.83898e-05	1	3.06989e-06	42	0.7998	-1.64555e-08
2	1	0	0	0	8.7274	-0.343958	-0.344044	2.11589e-05	1	3.0245e-06	42	1.5996	-7.27959e-09
2	1	0	1	0	9.5272	-0.347957	-0.348058	5.66383e-08	1	2.96288e-06	42	2.3994	-1.97134e-11
2	0	0	1	0	10.3269	-0.351956	-0.352038	-2.14821e-05	1	2.88143e-06	42	3.1991	7.5625e-09
2	0	0	0	0	11.1266	-0.355954	-0.356047	-3.74248e-05	1	2.78504e-06	42	3.9988	1.3325e-08
2	0	0	1	0	11.9264	-0.359953	-0.360034	-5.46381e-05	1	2.6754e-06	42	4.7986	1.96716e-08
2	0	0	0	0	12.7262	-0.363952	-0.364037	-6.99741e-05	1	2.55235e-06	42	5.5984	2.54731e-08
2	0	0	1	0	13.5259	-0.36795	-0.368034	-7.54409e-05	1	2.42027e-06	42	6.3981	2.77648e-08
2	0	0	1	0	14.3256	-0.371949	-0.372034	-9.474e-05	1	2.27659e-06	42	7.1978	3.52465e-08
2	0	0	0	0	15.1254	-0.375948	-0.376052	-0.000126234	1	2.12172e-06	42	7.9976	4.74705e-08
2	0	0	1	0	15.9252	-0.379947	-0.380039	-0.000122405	1	1.95228e-06	42	8.7974	4.65185e-08
2	0	0	0	0	16.725	-0.383946	-0.384033	-0.000133842	1	1.77401e-06	42	9.5972	5.13998e-08
2	0	0	1	0	17.5247	-0.387945	-0.38803	-0.000146235	1	1.58613e-06	42	10.3969	5.67435e-08
2	0	0	1	0	18.3244	-0.391943	-0.392035	-0.000157141	1	1.39067e-06	42	11.1966	6.16048e-08
2	0	0	0	0	19.1242	-0.395942	-0.396038	-0.000170731	1	1.18478e-06	42	11.9964	6.76161e-08
2	0	0	1	0	19.924	-0.399941	-0.400041	-0.00018436	1	9.68468e-07	42	12.7962	7.37517e-08
2	0	0	1	0	20.7237	-0.403939	-0.404033	-0.000192775	1	7.44282e-07	42	13.5959	7.78874e-08
2	0	0	0	0	21.5234	-0.407938	-0.408026	-0.000204717	1	5.11241e-07	42	14.3956	8.35297e-08
2	0	0	1	0	22.3232	-0.411937	-0.412023	-0.000218148	1	2.69064e-07	42	15.1954	8.98819e-08
2	0	0	0	0	23.123	-0.415936	-0.416007	-0.000230802	1	1.58886e-08	42	15.9952	9.60154e-08
2	0	0	1	0	23.9228	-0.419935	-0.420008	-0.000236734	1	-2.46858e-07	42	16.795	9.94305e-08
2	0	0	1	0	24.7225	-0.423934	-0.424024	-0.000252305	1	-5.17965e-07	42	17.5947	1.06983e-07
2	0	0	0	0	25.5222	-0.427932	-0.428034	-0.000263598	1	-7.98973e-07	42	18.3944	1.12829e-07
2	0	0	1	0	26.322	-0.431931	-0.432016	-0.000280719	1	-1.0932e-06	42	19.1942	1.21275e-07
2	0	0	0	0	27.1218	-0.43593	-0.436014	-0.000291167	1	-1.39619e-06	42	19.994	1.26953e-07
2	0	0	1	0	27.9215	-0.439928	-0.440023	-0.000305825	1	-1.70846e-06	42	20.7937	1.3457e-07
2	0	0	1	0	28.7212	-0.443927	-0.443999	-0.000312635	1	-2.03065e-06	42	21.5934	1.38809e-07
2	0	0	0	0	29.521	-0.447926	-0.447994	-0.000321875	1	-2.36056e-06	42	22.3932	1.44198e-07
2	0	0	1	0	30.3208	-0.451925	-0.452011	-0.000323892	1	-2.69725e-06	42	23.193	1.46403e-07
2	0	0	0	0	31.1206	-0.455924	-0.456011	-0.000345874	1	-3.04405e-06	42	23.9928	1.57722e-07
2	0	0	1	0	31.9203	-0.459923	-0.460023	-0.000356029	1	-3.40056e-06	42	24.7925	1.63782e-07
2	0	0	1	0	32.72	-0.463921	-0.464017	-0.000367883	1	-3.76699e-06	42	25.5922	1.70704e-07
2	0	0	0	0	33.5198	-0.46792	-0.467984	-0.000382305	1	-4.14323e-06	42	26.392	1.78913e-07
2	0	0	1	0	34.3196	-0.471919	-0.472011	-0.000391829	1	-4.52956e-06	42	27.1918	1.84947e-07
2	0	0	1	0	35.1193	-0.475917	-0.476015	-0.000404326	1	-4.92628e-06	42	27.9915	1.92466e-07
2	0	0	0	0	35.919	-0.479916	-0.480001	-0.000421562	1	-5.33412e-06	42	28.7912	2.0235e-07
2	0	0	1	0	36.7188	-0.483915	-0.484001	-0.00043013	1	-5.75465e-06	42	29.591	2.08183e-07
2	0	0	0	0	37.5186	-0.487914	-0.487974	-0.000443405	1	-6.18438e-06	42	30.3908	2.1637e-07
2	0	0	1	0	38.3183	-0.491912	-0.491983	-0.000451523	1	-6.62421e-06	42	31.1905	2.22142e-07
2	0	0	1	0	39.1181	-0.495912	-0.495983	-0.000467647	1	-7.07324e-06	42	31.9903	2.31945e-07
2	0	0	0	0	39.9178	-0.49991	-0.49998	-0.000481582	1	-7.53459e-06	42	32.79	2.40781e-07
2	0	0	1	0	40.7176	-0.503909	-0.503966	-0.000492858	1	-8.00675e-06	42	33.5898	2.48383e-07
2	0	0	0	0	41.5174	-0.507908	-0.507959	-0.000508195	1	-8.49133e-06	42	34.3896	2.58142e-07
2	0	0	1	0	42.3171	-0.511907	-0.511977	-0.000528181	1	-8.98901e-06	42	35.1893	2.70416e-07
2	0	0	1	0	43.1168	-0.515905	-0.51599	-0.000553852	1	-9.50641e-06	42	35.989	2.85782e-07
2	0	0	0	0	43.9166	-0.519904	-0.519972	-0.000574047	1	-1.00413e-05	42	36.7888	2.98489e-07
2	0	0	1	0	44.7164	-0.523903	-0.523966	-0.000588838	1	-1.05891e-05	42	37.5886	3.08531e-07
2	0	0	1	0	45.5161	-0.527901	-0.527985	-0.000594768	1	-1.1144e-05	42	38.3883	3.14029e-07
2	0	0	0	0	46.3158	-0.5319	-0.531971	-0.000599396	1	-1.17086e-05	42	39.188	3.18861e-07
2	0	0	1	0	47.1156	-0.535899	-0.535967	-0.000619536	1	-1.22844e-05	42	39.9878	3.32051e-07
2	0	0	0	0	47.9154	-0.539898	-0.539962	-0.000630796	1	-1.28728e-05	42	40.7876	3.40606e-07
2	0	0	1	0	48.7151	-0.543896	-0.543949	-0.000649312	1	-1.34705e-05	42	41.5873	3.53193e-07
2	0	0	1	0	49.5149	-0.547896	-0.547943	-0.000663646	1	-1.40839e-05	42	42.3871	3.6364e-07
2	0	0	0	0	50.3146	-0.551894	-0.551982	-0.000671385	1	-1.47089e-05	42	43.1868	3.70592e-07
2	0	0	1	0	51.1144	-0.555893	-0.555976	-0.000690825	1	-1.53447e-05	42	43.9866	3.84082e-07
2	0	0	0	0	51.9142	-0.559892	-0.559972	-0.000698368	1	-1.59909e-05	42	44.7864	3.91066e-07
2	0	0	1	0	52.7139	-0.56389	-0.563954	-0.000711762	1	-1.66485e-05	42	45.5861	4.01401e-07
2	0	0	1	0	53.5136	-0.567889	-0.567964	-0.000719847	1	-1.73154e-05	42	46.3858	4.08847e-07
2	0	0	0	0	54.3134	-0.571888	-0.571938	-0.000727764	1	-1.7988e-05	42	47.1856	4.16236e-07
2	0	0	1	0	55.1132	-0.575887	-0.57595	-0.000749159	1	-1.86716e-05	42	47.9854	4.31478e-07
2	0	0	1	0	55.9129	-0.579885	-0.579942	-0.000750833	1	-1.93641e-05	42	48.7851	4.3544e-07
2	0	0	1	0	56.7127	-0.583885	-0.583929	-0.000754798	1	-2.00624e-05	42	49.5849	4.40749e-07
2	0	0	1	0	57.5124	-0.587883	-0.587962	-0.000776116	1	-2.07719e-05	42	50.3846	4.56326e-07
2	0	0	0	0	58.3122	-0.591882	-0.591968	-0.000776373	1	-2.14902e-05	42	51.1844	4.59588e-07
2	0	0	1	0	59.112	-0.595881	-0.595935	-0.000785079	1	-2.22108e-05	42	51.9842	4.67856e-07
2	0	0	1	0	59.9117	-0.599879	-0.599951	-0.000801653	1	-2.29422e-05	42	52.7839	4.80953e-07
2	0	0	0	0	60.7114	-0.603878	-0.603975	-0.000829586	1	-2.36933e-05	42	53.5836	5.01049e-07
2	0	0	1	0	61.5112	-0.607877	-0.60795	-0.000851498	1	-2.44678e-05	42	54.3834	5.17668e-07
2	0	0	0	0	62.311	-0.611876	-0.61195	-0.000870418	1	-2.52539e-05	42	55.1832	5.32652e-07
2	0	0	1	0	63.1107	-0.615874	-0.615961	-0.000876878	1	-2.60506e-05	42	55.9829	5.40122e-07
2	0	0	1	0	63.9104	-0.619873	-0.619952	-0.000888689	1	-2.68582e-05	42	56.7826	5.50945e-07
2	0	0	0	0	64.7102	-0.623872	-0.623952	-0.000908978	1	-2.76796e-05	42	57.5824	5.67158e-07
2	0	0	1	0	65.51	-0.627871	-0.627977	-0.000918036	1	-2.85107e-05	42	58.3822	5.76506e-07
2	0	0	0	0	66.3098	-0.63187	-0.631971	-0.000936094	1	-2.93535e-05	42	59.182	5.91584e-07
2	0	0	1	0	67.1095	-0.635868	-0.63599	-0.000958565	1	-3.0213e-05	42	59.9817	6.09638e-07
2	0	0	1	0	67.9092	-0.639867	-0.639968	-0.000971298	1	-3.10818e-05	42	60.7814	6.21599e-07
2	0	0	0	0	68.709	-0.643866	-0.643962	-0.000969043	1	-3.19567e-05	42	61.5812	6.24027e-07
2	0	0	1	0	69.5088	-0.647865	-0.647964	-0.00098684	1	-3.284e-05	42	62.381	6.39437e-07
2	0	0	1	0	70.3085	-0.651863	-0.651991	-0.00100695	1	-3.37367e-05	42	63.1807	6.56525e-07
2	0	0	0	0	71.1082	-0.655862	-0.655951	-0.00102473	1	-3.46456e-05	42	63.9804	6.72169e-07
2	0	0	1	0	71.908	-0.659861	-0.659943	-0.00104909	1	-3.558e-05	42	64.7802	6.92336e-07
2	0	0	0	0	72.7078	-0.66386	-0.663938	-0.00108196	1	-3.65385e-05	42	65.58	7.18352e-07
2	0	0	1	0	73.5076	-0.667859	-0.667941	-0.00111233	1	-3.75202e-05	42	66.3798	7.4297e-07
2	0	0	1	0	74.3073	-0.671858	-0.67193	-0.00113138	1	-3.85189e-05	42	67.1795	7.6021e-07
2	0	0	0	0	75.107	-0.675856	-0.67593	-0.00114366	1	-3.95298e-05	42	67.9792	7.73037e-07
2	0	0	1	0	75.9068	-0.679855	-0.679939	-0.00116092	1	-4.05568e-05	42	68.779	7.89353e-07
2	0	0	0	0	76.7066	-0.683854	-0.683935	-0.00118169	1	-4.15988e-05	42	69.5788	8.082e-07
2	0	0	1	0	77.5063	-0.687852	-0.68793	-0.00120408	1	-4.26605e-05	42	70.3785	8.28325e-07
2	0	0	1	0	78.306	-0.691851	-0.691924	-0.00122885	1	-4.37404e-05	42	71.1782	8.50268e-07
2	0	0	0	0	79.1058	-0.69585	-0.695939	-0.00125304	1	-4.48417e-05	42	71.978	8.72039e-07
2	0	0	1	0	79.9056	-0.699849	-0.699928	-0.00126711	1	-4.59608e-05	42	72.7778	8.86885e-07
2	0	0	0	0	80.7054	-0.703848	-0.703946	-0.00129054	1	-4.70917e-05	42	73.5776	9.08471e-07
2	0	0	1	0	81.5051	-0.707847	-0.707935	-0.00131076	1	-4.82389e-05	42	74.3773	9.2793e-07
2	0	0	1	0	82.3048	-0.711845	-0.711915	-0.00133231	1	-4.9405e-05	42	75.177	9.48493e-07
2	0	0	0	0	83.1046	-0.715844	-0.715939	-0.00135534	1	-5.05924e-05	42	75.9768	9.70343e-07
2	0	0	1	0	83.9044	-0.719843	-0.719924	-0.00138055	1	-5.17989e-05	42	76.7766	9.93889e-07
2	0	0	1	0	84.7041	-0.723841	-0.723907	-0.00141014	1	-5.30277e-05	42	77.5763	1.02081e-06
2	0	0	0	0	85.5038	-0.72784	-0.727924	-0.00143653	1	-5.42794e-05	42	78.376	1.04569e-06
2	0	0	1	0	86.3036	-0.731839	-0.731904	-0.00145074	1	-5.55495e-05	42	79.1758	1.0618e-06
2	0	0	0	0	87.1034	-0.735838	-0.735905	-0.00147905	1	-5.68408e-05	42	79.9756	1.08844e-06
2	0	0	1	0	87.9032	-0.739837	-0.739901	-0.00151723	1	-5.81536e-05	42	80.7754	1.1226e-06
2	0	0	1	0	88.7029	-0.743836	-0.743903	-0.00153777	1	-5.94922e-05	42	81.5751	1.14395e-06
2	0	0	0	0	89.5026	-0.747834	-0.74791	-0.00158335	1	-6.0862e-05	42	82.3748	1.1842e-06
2	0	0	1	0	90.3024	-0.751833	-0.75189	-0.00160957	1	-6.22633e-05	42	83.1746	1.21022e-06
2	0	0	0	0	91.1022	-0.755832	-0.755904	-0.00165246	1	-6.36923e-05	42	83.9744	1.2491e-06
2	0	0	1	0	91.9019	-0.759831	-0.759912	-0.0017042	1	-6.51552e-05	42	84.7741	1.29505e-06
2	0	0	1	0	92.7016	-0.763829	-0.763901	-0.00175368	1	-6.66609e-05	42	85.5738	1.33964e-06
2	0	0	0	0	93.5014	-0.767828	-0.76789	-0.00181834	1	-6.82259e-05	42	86.3736	1.39629e-06
2	0	0	1	0	94.3012	-0.771827	-0.771903	-0.00183169	1	-6.98075e-05	42	87.1734	1.41388e-06
2	0	0	1	0	95.1009	-0.775825	-0.775894	-0.00184707	1	-7.14069e-05	42	87.9731	1.43313e-06
2	0	0	1	0	95.9007	-0.779825	-0.779907	-0.00185932	1	-7.30206e-05	42	88.7729	1.4501e-06
2	0	0	1	0	96.7004	-0.783823	-0.783919	-0.00188285	1	-7.4646e-05	42	89.5726	1.476e-06
2	0	0	0	0	97.5002	-0.787822	-0.787892	-0.00190982	1	-7.62939e-05	42	90.3724	1.50474e-06
2	0	0	1	0	98.3	-0.791821	-0.791902	-0.001938	1	-7.79638e-05	42	91.1722	1.53471e-06
2	0	0	1	0	99.0997	-0.795819	-0.795877	-0.00198697	1	-7.9665e-05	42	91.9719	1.58138e-06
2	0	0	0	0	99.8994	-0.799818	-0.799849	-0.00201461	1	-8.13986e-05	42	92.7716	1.61138e-06
2	0	0	1	0	100.699	-0.803817	-0.803865	-0.00206915	1	-8.31628e-05	42	93.5714	1.66332e-06
2	0	0	0	0	101.499	-0.807816	-0.807888	-0.00208377	1	-8.49572e-05	42	94.3712	1.68345e-06
2	0	0	1	0	102.299	-0.811814	-0.811881	-0.00211237	1	-8.67724e-05	42	95.1709	1.71499e-06
2	0	0	1	0	103.098	-0.815814	-0.815881	-0.00215151	1	-8.86132e-05	42	95.9707	1.75537e-06
2	0	0	0	0	103.898	-0.819812	-0.819879	-0.00218834	1	-9.04838e-05	42	96.7704	1.79418e-06
2	0	0	1	0	104.698	-0.823811	-0.823867	-0.00222936	1	-9.2385e-05	42	97.5702	1.8367e-06
2	0	0	0	0	105.498	-0.82781	-0.827888	-0.00226284	1	-9.43187e-05	42	98.37	1.87338e-06
2	0	0	1	0	106.297	-0.831808	-0.8319	-0.00231551	1	-9.62856e-05	42	99.1697	1.92627e-06
2	0	0	1	0	107.097	-0.835807	-0.835868	-0.00235322	1	-9.82879e-05	42	99.9694	1.96699e-06
2	0	0	0	0	107.897	-0.839806	-0.839862	-0.00240141	1	-0.00010033	42	100.769	2.01685e-06
2	0	0	1	0	108.697	-0.843805	-0.843878	-0.0024678	1	-0.000102416	42	101.569	2.08252e-06
2	0	0	1	0	109.496	-0.847803	-0.847891	-0.00248293	1	-0.000104537	42	102.369	2.10525e-06
2	0	0	1	0	110.296	-0.851803	-0.851867	-0.00250864	1	-0.000106675	42	103.168	2.13703e-06
2	0	0	1	0	111.096	-0.855801	-0.855872	-0.00254448	1	-0.00010884	42	103.968	2.17775e-06
2	0	0	0	0	111.896	-0.8598	-0.859885	-0.00256767	1	-0.000111028	42	104.768	2.2079e-06
2	0	0	1	0	112.696	-0.863799	-0.863865	-0.00261449	1	-0.000113245	42	105.568	2.25857e-06
2	0	0	1	0	113.495	-0.867798	-0.867864	-0.00265315	1	-0.000115493	42	106.367	2.30258e-06
2	0	0	0	0	114.295	-0.871796	-0.871867	-0.00268815	1	-0.000117774	42	107.167	2.34371e-06
2	0	0	1	0	115.095	-0.875795	-0.875853	-0.00272835	1	-0.000120081	42	107.967	2.38964e-06
2	0	0	0	0	115.895	-0.879794	-0.879837	-0.00276117	1	-0.000122418	42	108.767	2.42937e-06
2	0	0	1	0	116.694	-0.883792	-0.883869	-0.00278858	1	-0.000124785	42	109.566	2.46474e-06
2	0	0	1	0	117.494	-0.887791	-0.887851	-0.00282284	1	-0.000127178	42	110.366	2.50626e-06
2	0	0	0	0	118.294	-0.89179	-0.891867	-0.00286601	1	-0.000129596	42	111.166	2.5561e-06
2	0	0	1	0	119.094	-0.895789	-0.895861	-0.00290957	1	-0.000132047	42	111.966	2.60657e-06
2	0	0	0	0	119.893	-0.899788	-0.899845	-0.00296044	1	-0.000134542	42	112.766	2.66394e-06
2	0	0	1	0	120.693	-0.903787	-0.903839	-0.00301777	1	-0.000137076	42	113.565	2.72758e-06
2	0	0	1	0	121.493	-0.907785	-0.907846	-0.00306552	1	-0.000139652	42	114.365	2.78302e-06
2	0	0	0	0	122.293	-0.911784	-0.911837	-0.00310817	1	-0.000142268	42	115.165	2.83414e-06
2	0	0	1	0	123.092	-0.915783	-0.915866	-0.00318083	1	-0.00014493	42	115.965	2.91321e-06
2	0	0	1	0	123.892	-0.919781	-0.919841	-0.00321917	1	-0.000147637	42	116.764	2.96112e-06
2	0	0	0	0	124.692	-0.92378	-0.92385	-0.00326472	1	-0.000150381	42	117.564	3.01611e-06
2	0	0	1	0	125.492	-0.927779	-0.927844	-0.00330454	1	-0.000153158	42	118.364	3.0661e-06
2	0	0	0	0	126.291	-0.931778	-0.931844	-0.00335249	1	-0.000155983	42	119.164	3.124e-06
2	0	0	1	0	127.091	-0.935777	-0.935832	-0.00332197	1	-0.000158799	42	119.963	3.10881e-06
2	0	0	1	0	127.891	-0.939776	-0.939849	-0.00332815	1	-0.000161599	42	120.763	3.12796e-06
2	0	0	0	0	128.691	-0.943774	-0.943838	-0.00328039	1	-0.000164383	42	121.563	3.09616e-06
2	0	0	1	0	129.49	-0.947773	-0.947832	-0.00324296	1	-0.00016714	42	122.363	3.07378e-06
2	0	0	0	0	130.29	-0.951772	-0.951823	-0.00324035	1	-0.000169883	42	123.162	3.08424e-06
2	0	0	1	0	131.09	-0.95577	-0.955837	-0.00325435	1	-0.000172629	42	123.962	3.11063e-06
2	0	0	1	0	131.89	-0.959769	-0.959855	-0.00325689	1	-0.000175378	42	124.762	3.12614e-06
2	0	0	0	0	132.689	-0.963768	-0.963831	-0.00326	1	-0.000178136	42	125.562	3.14209e-06
2	0	0	1	0	133.489	-0.967767	-0.967822	-0.00328427	1	-0.000180904	42	126.361	3.17859e-06
2	0	0	0	0	134.289	-0.971766	-0.971799	-0.00326355	1	-0.000183668	42	127.161	3.17152e-06
2	0	0	1	0	135.089	-0.975765	-0.975814	-0.0032491	1	-0.000186417	42	127.961	3.17051e-06
2	0	0	1	0	135.888	-0.979763	-0.979816	-0.00326471	1	-0.000189172	42	128.761	3.19882e-06
2	0	0	0	0	136.688	-0.983762	-0.983827	-0.00329868	1	-0.000191947	42	129.56	3.24533e-06
2	0	0	1	0	137.488	-0.987761	-0.987839	-0.0033299	1	-0.000194747	42	130.36	3.2894e-06
2	0	0	1	0	138.288	-0.991759	-0.991814	-0.00339184	1	-0.000197585	42	131.16	3.36408e-06
2	0	0	0	0	139.087	-0.995758	-0.995815	-0.00342928	1	-0.000200466	42	131.96	3.41492e-06
2	0	0	1	0	139.887	-0.999757	-0.999822	-0.00340676	1	-0.00020336	42	132.759	3.40615e-06
2	0	0	0	0	140.687	-1.00376	-1.00383	-0.00340579	1	-0.00020624	42	133.559	3.41882e-06
2	0	0	1	0	141.487	-1.00775	-1.0078	-0.0033931	1	-0.000209106	42	134.359	3.41958e-06
2	0	0	1	0	142.286	-1.01175	-1.01181	-0.00343651	1	-0.000211995	42	135.159	3.47711e-06
2	0	0	0	0	143.086	-1.01575	-1.0158	-0.00347633	1	-0.000214918	42	135.958	3.53124e-06
2	0	0	1	0	143.886	-1.01975	-1.01981	-0.00351905	1	-0.000217873	42	136.758	3.58875e-06
2	0	0	0	0	144.686	-1.02375	-1.02383	-0.00351641	1	-0.000220846	42	137.558	3.60019e-06
2	0	0	1	0	145.485	-1.02775	-1.0278	-0.00355071	1	-0.000223828	42	138.358	3.64941e-06
2	0	0	1	0	146.285	-1.03175	-1.0318	-0.00359067	1	-0.000226843	42	139.157	3.70486e-06
2	0	0	0	0	147.085	-1.03575	-1.0358	-0.0036617	1	-0.000229904	42	139.957	3.7928e-06
2	0	0	1	0	147.885	-1.03974	-1.03981	-0.00367352	1	-0.000233001	42	140.757	3.81978e-06
2	0	0	1	0	148.684	-1.04374	-1.04381	-0.00371294	1	-0.000236121	42	141.557	3.87559e-06
2	0	0	0	0	149.484	-1.04774	-1.04781	-0.00373469	1	-0.000239264	42	142.356	3.91324e-06
2	0	0	1	0	150.284	-1.05174	-1.05178	-0.00375764	1	-0.000242427	42	143.156	3.95221e-06
2	0	0	0	0	151.084	-1.05574	-1.05578	-0.00378918	1	-0.000245614	42	143.956	4.00053e-06
2	0	0	1	0	151.884	-1.05974	-1.05979	-0.00382807	1	-0.000248827	42	144.756	4.05697e-06
2	0	0	1	0	152.683	-1.06374	-1.0638	-0.00384042	1	-0.000252066	42	145.555	4.08544e-06
2	0	0	0	0	153.483	-1.06774	-1.0678	-0.00386802	1	-0.000255316	42	146.355	4.13027e-06
2	0	0	1	0	154.283	-1.07173	-1.07177	-0.00389879	1	-0.000258593	42	147.155	4.1786e-06
2	0	0	0	0	155.083	-1.07573	-1.07578	-0.00393249	1	-0.000261897	42	147.955	4.2305e-06
2	0	0	1	0	155.882	-1.07973	-1.07976	-0.00397101	1	-0.000265228	42	148.754	4.28773e-06
2	0	0	1	0	156.682	-1.08373	-1.08376	-0.00402171	1	-0.000268597	42	149.554	4.35856e-06
2	0	0	0	0	157.482	-1.08773	-1.08777	-0.00404854	1	-0.000272	42	150.354	4.40388e-06
2	0	0	1	0	158.282	-1.09173	-1.09178	-0.00410933	1	-0.000275438	42	151.154	4.48647e-06
2	0	0	1	0	159.081	-1.09573	-1.09577	-0.00414806	1	-0.000278908	42	151.953	4.54534e-06
2	0	0	1	0	159.881	-1.09973	-1.09977	-0.00416482	1	-0.000282407	42	152.753	4.58034e-06
2	0	0	1	0	160.681	-1.10373	-1.10379	-0.00420738	1	-0.000285931	42	153.553	4.64405e-06
2	0	0	0	0	161.481	-1.10772	-1.10774	-0.00426649	1	-0.000289494	42	154.353	4.72617e-06
2	0	0	1	0	162.28	-1.11172	-1.11173	-0.00430433	1	-0.000293096	42	155.153	4.78526e-06
2	0	0	1	0	163.08	-1.11572	-1.11575	-0.00434627	1	-0.000296734	42	155.952	4.84933e-06
2	0	0	0	0	163.88	-1.11972	-1.11976	-0.00440353	1	-0.00030041	42	156.752	4.9309e-06
2	0	0	1	0	164.68	-1.12372	-1.12377	-0.00443295	1	-0.000304122	42	157.552	4.98159e-06
2	0	0	0	0	165.479	-1.12772	-1.12776	-0.00451546	1	-0.000307874	42	158.352	5.09234e-06
2	0	0	1	0	166.279	-1.13172	-1.13179	-0.00461218	1	-0.000311693	42	159.151	5.22e-06
2	0	0	1	0	167.079	-1.13572	-1.13577	-0.00472064	1	-0.000315595	42	159.951	5.36159e-06
2	0	0	0	0	167.879	-1.13971	-1.13977	-0.0048724	1	-0.000319611	42	160.751	5.5534e-06
2	0	0	1	0	168.678	-1.14371	-1.14377	-0.00514291	1	-0.000323778	42	161.551	5.88232e-06
2	0	0	0	0	169.478	-1.14771	-1.14775	-0.00547339	1	-0.00032821	42	162.35	6.28211e-06
2	0	0	1	0	170.278	-1.15171	-1.15175	-0.00579572	1	-0.0003329	42	163.15	6.67524e-06
2	0	0	1	0	171.078	-1.15571	-1.15576	-0.00601617	1	-0.000337797	42	163.95	6.95326e-06
2	0	0	0	0	171.877	-1.15971	-1.15975	-0.00618871	1	-0.00034285	42	164.75	7.17734e-06
2	0	0	1	0	172.677	-1.16371	-1.16375	-0.00646318	1	-0.00034812	42	165.549	7.52151e-06
2	0	0	1	0	173.477	-1.16771	-1.16774	-0.00662676	1	-0.00035353	42	166.349	7.73833e-06
2	0	0	1	0	174.277	-1.1717	-1.17174	-0.00720414	1	-0.000359269	42	167.149	8.44139e-06
2	0	0	1	0	175.076	-1.1757	-1.17572	-0.00793584	1	-0.000365464	42	167.949	9.33033e-06
2	0	0	0	0	175.876	-1.1797	-1.17974	-0.00887869	1	-0.000372426	42	168.748	1.04746e-05
2	0	0	1	0	176.696	-1.1838	-1.18382	-0.00979223	1	-0.000380322	41	169.568	1.15922e-05
2	0	0	1	0	177.496	-1.1878	-1.18781	-0.0104222	1	-0.000388704	41	170.368	1.23795e-05
2	0	0	0	0	178.295	-1.1918	-1.1918	-0.0105539	1	-0.000397153	41	171.168	1.25782e-05
2	0	0	1	0	179.095	-1.1958	-1.19582	-0.0111349	1	-0.000405935	41	171.967	1.33153e-05
2	0	0	0	0	179.895	-1.1998	-1.1998	-0.0117913	1	-0.000415118	41	172.767	1.41472e-05
2	0	0	1	0	180.695	-1.20379	-1.2038	-0.012501	1	-0.000424755	41	173.567	1.50487e-05
2	0	0	1	0	181.494	-1.20779	-1.20781	-0.0157931	1	-0.000436403	41	174.367	1.9075e-05
2	0	0	0	0	182.294	-1.21179	-1.21178	-0.0168104	1	-0.000449976	41	175.166	2.03706e-05
2	0	0	1	0	183.094	-1.21579	-1.21579	-0.0178933	1	-0.000463978	41	175.966	2.17545e-05
2	0	0	1	0	183.894	-1.21979	-1.2198	-0.0199333	1	-0.000479346	41	176.766	2.43147e-05
2	0	0	1	0	184.693	-1.22379	-1.22382	-0.0205656	1	-0.000495271	41	177.566	2.51687e-05
2	0	0	1	0	185.493	-1.22779	-1.22781	-0.0255415	1	-0.000513773	41	178.365	3.136e-05
2	0	0	0	0	186.293	-1.23179	-1.23181	-0.0332201	1	-0.000538129	41	179.165	4.09208e-05
2	0	0	1	0	187.093	-1.23578	-1.2358	-0.0384194	1	-0.000566937	41	179.965	4.74786e-05
2	0	0	1	0	187.892	-1.23978	-1.2398	-0.0439568	1	-0.000601347	41	180.765	5.44975e-05
2	0	0	0	0	188.692	-1.24378	-1.24381	-0.0513222	1	-0.000638028	41	181.564	6.38352e-05
2	0	0	1	0	189.492	-1.24778	-1.24781	-0.0621268	1	-0.00068417	41	182.364	7.75226e-05
2	0	0	0	0	190.292	-1.25178	-1.25181	-0.0668148	1	-0.000735729	41	183.164	8.36396e-05
2	0	0	1	0	191.091	-1.25578	-1.2558	-0.0811474	1	-0.00079365	41	183.964	0.000101905
2	0	0	1	0	191.891	-1.25978	-1.25981	-0.0949312	1	-0.000865671	41	184.763	0.000119595
2	0	0	0	0	192.691	-1.26378	-1.2638	-0.0910424	1	-0.000942902	41	185.563	0.00011506
2	0	0	1	0	193.511	-1.26787	-1.26788	-0.111103	1	-0.00102771	40	186.383	0.000140865
2	0	0	1	0	194.31	-1.27187	-1.27189	-0.0964499	1	-0.00111166	40	187.183	0.000122674
2	0	0	1	0	195.11	-1.27587	-1.27589	-0.110264	1	-0.00119311	40	187.982	0.000140684
2	0	0	1	0	195.91	-1.27987	-1.27989	-0.11118	1	-0.00128352	40	188.782	0.000142297
2	0	0	0	0	196.71	-1.28387	-1.28387	-0.123835	1	-0.00137867	40	189.582	0.000158989
2	0	0	1	0	197.51	-1.28787	-1.28789	-0.12957	1	-0.00148194	40	190.382	0.000166872
2	0	0	1	0	198.309	-1.29187	-1.29189	-0.122862	1	-0.00158687	40	191.181	0.000158724
2	0	0	0	0	199.109	-1.29587	-1.2959	-0.130376	1	-0.00169232	40	191.981	0.000168955
2	0	0	1	0	199.869	-1.29967	-1.29969	-0.117925	1	-0.00178509	40	192.741	0.000153267
2	0	0	1	1	200.449	-1.29747	-1.2975	-0.110461	2	-0.00185099	40	193.321	0.000143323
2	0	0	0	1	201.249	-1.29347	-1.2935	-0.108926	2	-0.00194333	40	194.121	0.000140896
2	0	0	1	1	202.049	-1.28947	-1.28947	-0.104404	2	-0.00202981	40	194.921	0.000134626
2	0	0	1	1	202.848	-1.28547	-1.28547	-0.107193	2	-0.00211593	40	195.721	0.000137795
2	0	0	0	1	203.648	-1.28147	-1.2815	-0.104994	2	-0.00220064	40	196.52	0.00013455
2	0	0	1	1	204.448	-1.27747	-1.2775	-0.0838035	2	-0.00227932	40	197.32	0.000107059
2	0	0	0	1	205.248	-1.27347	-1.2735	-0.0755777	2	-0.00234343	40	198.12	9.6248e-05
2	0	0	1	1	206.047	-1.26947	-1.26948	-0.0781532	2	-0.00240589	40	198.92	9.92141e-05
2	0	0	1	1	206.847	-1.26548	-1.26548	-0.0736471	2	-0.00246794	40	199.719	9.31991e-05
2	0	0	0	1	207.647	-1.26148	-1.26149	-0.0694327	2	-0.00252401	40	200.519	8.75886e-05
2	0	0	1	1	208.447	-1.25748	-1.25749	-0.0678405	2	-0.00257808	40	201.319	8.53088e-05
2	0	0	0	1	209.247	-1.25348	-1.25352	-0.0639037	2	-0.00263038	40	202.119	8.01045e-05
2	0	0	1	1	210.046	-1.24948	-1.2495	-0.0654074	2	-0.00268067	40	202.918	8.17266e-05
2	0	0	1	1	210.846	-1.24548	-1.24551	-0.0638072	2	-0.00273108	40	203.718	7.94726e-05
2	0	0	0	1	211.646	-1.24148	-1.24149	-0.0572168	2	-0.00277752	40	204.518	7.1034e-05
2	0	0	1	1	212.446	-1.23748	-1.23752	-0.056373	2	-0.00282344	40	205.318	6.97627e-05
2	0	0	0	1	213.245	-1.23349	-1.23349	-0.0550159	2	-0.0028673	40	206.118	6.78618e-05
2	0	0	1	1	214.045	-1.22949	-1.22951	-0.0530145	2	-0.00290971	40	206.917	6.51817e-05
2	0	0	1	1	214.845	-1.22549	-1.2255	-0.0508729	2	-0.00295059	40	207.717	6.23446e-05
2	0	0	0	1	215.645	-1.22149	-1.22151	-0.0488731	2	-0.00299002	40	208.517	5.96988e-05
2	0	0	1	1	216.444	-1.21749	-1.21751	-0.0494822	2	-0.00302941	40	209.317	6.02452e-05
2	0	0	1	1	217.244	-1.21349	-1.21348	-0.0480601	2	-0.00306774	40	210.116	5.83202e-05
2	0	0	0	1	218.064	-1.20939	-1.20941	-0.0428679	2	-0.00310434	41	210.936	5.18447e-05
2	0	0	1	1	218.864	-1.20539	-1.20542	-0.0415302	2	-0.00313787	41	211.736	5.00615e-05
2	0	0	0	1	219.663	-1.2014	-1.20142	-0.0414716	2	-0.00317083	41	212.536	4.98247e-05
2	0	0	1	1	220.463	-1.1974	-1.1974	-0.0395187	2	-0.00320261	41	213.335	4.73199e-05
2	0	0	1	1	221.263	-1.1934	-1.19343	-0.0355789	2	-0.00323243	41	214.135	4.2461e-05
2	0	0	0	1	222.063	-1.1894	-1.18943	-0.0345892	2	-0.00326028	41	214.935	4.11414e-05
2	0	0	1	1	222.862	-1.1854	-1.18541	-0.0326276	2	-0.00328694	41	215.735	3.86771e-05
2	0	0	0	1	223.662	-1.1814	-1.18143	-0.0325083	2	-0.0033131	41	216.534	3.84063e-05
2	0	0	1	1	224.462	-1.1774	-1.17744	-0.029918	2	-0.00333796	41	217.334	3.52267e-05
2	0	0	1	1	225.262	-1.1734	-1.17343	-0.0299253	2	-0.00336177	41	218.134	3.51151e-05
2	0	0	0	1	226.061	-1.1694	-1.16943	-0.0273406	2	-0.00338421	41	218.934	3.19729e-05
2	0	0	1	1	226.861	-1.16541	-1.16545	-0.0255322	2	-0.00340534	41	219.733	2.97565e-05
2	0	0	1	1	227.661	-1.16141	-1.16141	-0.0243875	2	-0.00342501	41	220.533	2.83239e-05
2	0	0	0	1	228.461	-1.15741	-1.15744	-0.0231346	2	-0.00344381	41	221.333	2.6777e-05
2	0	0	1	1	229.26	-1.15341	-1.15343	-0.0216775	2	-0.00346169	41	222.133	2.50036e-05
2	0	0	0	1	230.06	-1.14941	-1.14945	-0.0207282	2	-0.0034785	41	222.932	2.38259e-05
2	0	0	1	1	230.86	-1.14541	-1.14546	-0.0193956	2	-0.00349433	41	223.732	2.22168e-05
2	0	0	1	1	231.66	-1.14141	-1.14148	-0.0180268	2	-0.00350912	41	224.532	2.05772e-05
2	0	0	0	1	232.459	-1.13741	-1.13748	-0.0163686	2	-0.00352272	41	225.332	1.86189e-05
2	0	0	1	1	233.259	-1.13342	-1.13345	-0.0156118	2	-0.00353538	41	226.131	1.76953e-05
2	0	0	0	1	234.059	-1.12942	-1.12945	-0.0142175	2	-0.00354712	41	226.931	1.60581e-05
2	0	0	1	1	234.859	-1.12542	-1.12547	-0.0132341	2	-0.00355802	41	227.731	1.48946e-05
2	0	0	1	1	235.658	-1.12142	-1.12145	-0.0122858	2	-0.00356802	41	228.531	1.37778e-05
2	0	0	0	1	236.458	-1.11742	-1.11746	-0.0113201	2	-0.00357728	41	229.33	1.26497e-05
2	0	0	1	1	237.258	-1.11342	-1.11344	-0.010238	2	-0.00358584	41	230.13	1.13993e-05
2	0	0	1	1	238.058	-1.10942	-1.10945	-0.00951343	2	-0.00359359	41	230.93	1.05547e-05
2	0	0	1	1	238.857	-1.10542	-1.10546	-0.00892467	2	-0.00360083	41	231.73	9.86587e-06
2	0	0	1	1	239.657	-1.10143	-1.10148	-0.00854646	2	-0.00360782	41	232.529	9.41376e-06
2	0	0	0	1	240.457	-1.09743	-1.09747	-0.00783032	2	-0.00361422	41	233.329	8.59354e-06
2	0	0	1	1	241.257	-1.09343	-1.09347	-0.00709455	2	-0.00362003	41	234.129	7.75767e-06
2	0	0	1	1	242.056	-1.08943	-1.08947	-0.00656327	2	-0.00362532	41	234.929	7.15051e-06
2	0	0	0	1	242.856	-1.08543	-1.08547	-0.00609381	2	-0.00363022	41	235.728	6.61467e-06
2	0	0	1	1	243.656	-1.08143	-1.08147	-0.005349	2	-0.00363468	41	236.528	5.78478e-06
2	0	0	0	1	244.456	-1.07743	-1.07747	-0.00488649	2	-0.00363861	41	237.328	5.26503e-06
2	0	0	1	1	245.255	-1.07343	-1.07348	-0.00461083	2	-0.00364225	41	238.128	4.94963e-06
2	0	0	1	1	246.075	-1.06934	-1.06939	-0.00439849	2	-0.00364578	42	238.947	4.70369e-06
2	0	0	0	1	246.875	-1.06534	-1.06537	-0.0039586	2	-0.003649	42	239.747	4.21738e-06
2	0	0	1	1	247.675	-1.06134	-1.06138	-0.00358765	2	-0.00365187	42	240.547	3.80787e-06
2	0	0	0	1	248.475	-1.05734	-1.05738	-0.00317253	2	-0.00365442	42	241.347	3.35456e-06
2	0	0	1	1	249.274	-1.05334	-1.05339	-0.00289524	2	-0.0036567	42	242.146	3.04982e-06
2	0	0	1	1	250.074	-1.04934	-1.04936	-0.0025685	2	-0.00365877	42	242.946	2.69529e-06
2	0	0	0	1	250.874	-1.04534	-1.04537	-0.00225723	2	-0.00366055	42	243.746	2.35964e-06
2	0	0	1	1	251.674	-1.04134	-1.04138	-0.00198104	2	-0.00366209	42	244.546	2.06302e-06
2	0	0	1	1	252.473	-1.03735	-1.03738	-0.00178249	2	-0.00366347	42	245.345	1.84912e-06
2	0	0	0	1	253.273	-1.03335	-1.03337	-0.00161135	2	-0.00366468	42	246.145	1.66512e-06
2	0	0	1	1	254.073	-1.02935	-1.02939	-0.00144687	2	-0.00366576	42	246.945	1.48939e-06
2	0	0	0	1	254.873	-1.02535	-1.02538	-0.00135108	2	-0.00366674	42	247.745	1.38537e-06
2	0	0	1	1	255.672	-1.02135	-1.02139	-0.00108599	2	-0.00366758	42	248.544	1.10922e-06
2	0	0	1	1	256.472	-1.01735	-1.01739	-0.00097308	2	-0.00366825	42	249.344	9.9e-07
2	0	0	0	1	257.272	-1.01335	-1.0134	-0.00096776	2	-0.0036689	42	250.144	9.80724e-07
2	0	0	1	1	258.072	-1.00935	-1.00939	-0.000749368	2	-0.00366945	42	250.944	7.56404e-07
2	0	0	0	1	258.871	-1.00536	-1.00538	-0.000589376	2	-0.00366986	42	251.744	5.9255e-07
2	0	0	1	1	259.671	-1.00136	-1.00141	-0.000406961	2	-0.00367013	42	252.543	4.07535e-07
2	0	0	1	1	260.471	-0.997358	-0.997401	-0.000173952	2	-0.00367023	42	253.343	1.73499e-07
2	0	0	0	1	261.271	-0.993359	-0.993403	9.43585e-05	2	-0.00367013	42	0.5998	-9.3736e-08
2	1	0	1	1	262.07	-0.98936	-0.989403	0.000220019	2	-0.00366987	42	1.3996	-2.17687e-07
2	1	0	1	1	262.87	-0.985362	-0.985415	0.000336996	2	-0.00366951	42	2.1993	-3.32081e-07
2	1	0	1	1	263.67	-0.981362	-0.981391	0.000465964	2	-0.00366908	42	2.9991	-4.57294e-07
2	1	0	1	1	264.47	-0.977364	-0.977414	0.000667339	2	-0.00366851	42	3.7988	-6.52267e-07
2	1	0	0	1	265.269	-0.973365	-0.973424	0.000819719	2	-0.00366779	42	4.5986	-7.97935e-07
2	1	0	1	1	266.069	-0.969366	-0.969425	0.000845139	2	-0.00366701	42	5.3984	-8.19298e-07
2	1	0	1	1	266.869	-0.965367	-0.965446	0.000933401	2	-0.00366617	42	6.1981	-9.01147e-07
2	1	0	0	1	267.669	-0.961369	-0.961397	0.00101088	2	-0.00366527	42	6.9978	-9.71861e-07
2	1	0	1	1	268.468	-0.95737	-0.957404	0.00109883	2	-0.0036643	42	7.7976	-1.05202e-06
2	1	0	0	1	269.268	-0.953371	-0.953392	0.00117969	2	-0.00366329	42	8.5974	-1.12471e-06
2	1	0	1	1	270.068	-0.949373	-0.949424	0.00128681	2	-0.00366217	42	9.3971	-1.22173e-06
2	1	0	1	1	270.868	-0.945374	-0.945418	0.00135003	2	-0.00366098	42	10.1968	-1.27634e-06
2	1	0	0	1	271.667	-0.941375	-0.941418	0.00137825	2	-0.00365976	42	10.9966	-1.29751e-06
2	1	0	1	1	272.467	-0.937376	-0.937434	0.00143146	2	-0.00365851	42	11.7964	-1.3419e-06
2	1	0	1	1	273.267	-0.933378	-0.933436	0.0014159	2	-0.00365725	42	12.5961	-1.32166e-06
2	1	0	1	1	274.067	-0.929378	-0.929416	0.001407	2	-0.00365599	42	13.3959	-1.30769e-06
2	1	0	1	1	274.866	-0.92538	-0.925422	0.00145715	2	-0.00365472	42	14.1956	-1.34848e-06
2	1	0	0	1	275.666	-0.921381	-0.921423	0.00152034	2	-0.00365341	42	14.9954	-1.40088e-06
2	1	0	1	1	276.466	-0.917382	-0.917406	0.00168911	2	-0.003652	42	15.7952	-1.5496e-06
2	1	0	1	1	277.266	-0.913384	-0.913435	0.00177314	2	-0.00365051	42	16.5949	-1.61965e-06
2	1	0	0	1	278.065	-0.909385	-0.909426	0.00186919	2	-0.00364893	42	17.3946	-1.69989e-06
2	1	0	1	1	278.865	-0.905386	-0.905443	0.0019	2	-0.00364729	42	18.1944	-1.72034e-06
2	1	0	0	1	279.665	-0.901387	-0.901443	0.00189568	2	-0.00364565	42	18.9942	-1.70884e-06
2	1	0	1	1	280.465	-0.897389	-0.897404	0.00187536	2	-0.00364403	42	19.7939	-1.68295e-06
2	1	0	1	1	281.264	-0.893389	-0.893413	0.00175482	2	-0.00364247	42	20.5937	-1.56778e-06
2	1	0	0	1	282.064	-0.889391	-0.889422	0.00180548	2	-0.00364093	42	21.3934	-1.60583e-06
2	1	0	1	1	282.864	-0.885392	-0.885418	0.00185086	2	-0.00363933	42	22.1932	-1.63879e-06
2	1	0	0	1	283.664	-0.881393	-0.881425	0.00181628	2	-0.00363773	42	22.993	-1.60092e-06
2	1	0	1	1	284.463	-0.877394	-0.877408	0.00173681	2	-0.00363619	42	23.7927	-1.5239e-06
2	1	0	1	1	285.263	-0.873396	-0.873431	0.00165375	2	-0.00363471	42	24.5924	-1.44444e-06
2	1	0	0	1	286.063	-0.869397	-0.869438	0.00159903	2	-0.0036333	42	25.3922	-1.39026e-06
2	1	0	1	1	286.863	-0.865398	-0.865441	0.00155476	2	-0.00363192	42	26.192	-1.34555e-06
2	1	0	1	1	287.662	-0.8614	-0.861441	0.00144816	2	-0.0036306	42	26.9917	-1.2475e-06
2	1	0	1	1	288.462	-0.857401	-0.857434	0.00136789	2	-0.00362935	42	27.7914	-1.17287e-06
2	1	0	1	1	289.262	-0.853402	-0.853412	0.00130052	2	-0.00362817	42	28.5912	-1.10988e-06
2	1	0	0	1	290.062	-0.849403	-0.849418	0.00127611	2	-0.00362702	42	29.391	-1.08395e-06
2	1	0	1	1	290.862	-0.845404	-0.845434	0.00124024	2	-0.0036259	42	30.1908	-1.04854e-06
2	1	0	1	1	291.661	-0.841405	-0.841446	0.00126652	2	-0.00362478	42	30.9905	-1.06571e-06
2	1	0	0	1	292.461	-0.837407	-0.837461	0.00124434	2	-0.00362366	42	31.7902	-1.04208e-06
2	1	0	1	1	293.261	-0.833408	-0.833461	0.00123576	2	-0.00362254	42	32.59	-1.02996e-06
2	1	0	0	1	294.061	-0.829409	-0.829442	0.00128342	2	-0.00362139	42	33.3898	-1.06452e-06
2	1	0	1	1	294.86	-0.825411	-0.825453	0.00132284	2	-0.00362023	42	34.1895	-1.09194e-06
2	1	0	1	1	295.66	-0.821412	-0.821432	0.00135803	2	-0.00361904	42	34.9892	-1.11553e-06
2	1	0	0	1	296.46	-0.817413	-0.817426	0.00138212	2	-0.00361783	42	35.789	-1.12978e-06
2	1	0	1	1	297.26	-0.813414	-0.813446	0.00142451	2	-0.00361659	42	36.5888	-1.15877e-06
2	1	0	0	1	298.059	-0.809415	-0.809453	0.00142096	2	-0.00361533	42	37.3886	-1.1502e-06
2	1	0	1	1	298.859	-0.805417	-0.805434	0.00146065	2	-0.00361406	42	38.1883	-1.17646e-06
2	1	0	1	1	299.659	-0.801418	-0.801435	0.00146431	2	-0.00361277	42	38.988	-1.17355e-06
2	1	0	0	1	300.459	-0.797419	-0.797433	0.00148773	2	-0.00361148	42	39.7878	-1.18636e-06
2	1	0	1	1	301.258	-0.79342	-0.793472	0.00152204	2	-0.00361017	42	40.5876	-1.2077e-06
2	1	0	1	1	302.058	-0.789422	-0.789493	0.00151233	2	-0.00360884	42	41.3873	-1.19397e-06
2	1	0	1	1	302.858	-0.785422	-0.785489	0.0015071	2	-0.00360752	42	42.1871	-1.18381e-06
2	1	0	1	1	303.658	-0.781424	-0.781471	0.00148753	2	-0.00360622	42	42.9868	-1.16247e-06
2	1	0	0	1	304.457	-0.777425	-0.777459	0.0014782	2	-0.00360491	42	43.7866	-1.14924e-06
2	1	0	1	1	305.257	-0.773426	-0.773496	0.00148226	2	-0.00360362	42	44.5864	-1.14652e-06
2	1	0	1	1	306.057	-0.769427	-0.769488	0.00146378	2	-0.00360233	42	45.3861	-1.12636e-06
2	1	0	0	1	306.857	-0.765429	-0.765478	0.00144606	2	-0.00360106	42	46.1858	-1.10692e-06
2	1	0	1	1	307.656	-0.76143	-0.761482	0.00143788	2	-0.0035998	42	46.9856	-1.09492e-06
2	1	0	0	1	308.456	-0.757431	-0.757465	0.00144955	2	-0.00359854	42	47.7854	-1.09798e-06
2	1	0	1	1	309.256	-0.753433	-0.753503	0.00142637	2	-0.00359728	42	48.5851	-1.07477e-06
2	1	0	1	1	310.056	-0.749433	-0.749494	0.00142798	2	-0.00359603	42	49.3849	-1.07026e-06
2	1	0	0	1	310.855	-0.745435	-0.745494	0.00141655	2	-0.00359478	42	50.1846	-1.05603e-06
2	1	0	1	1	311.655	-0.741436	-0.741499	0.00138752	2	-0.00359354	42	50.9844	-1.02884e-06
2	1	0	0	1	312.455	-0.737437	-0.737488	0.00134732	2	-0.00359234	42	51.7842	-9.93633e-07
2	1	0	1	1	313.255	-0.733438	-0.733495	0.00133691	2	-0.00359117	42	52.5839	-9.80613e-07
2	1	0	1	1	314.054	-0.72944	-0.729499	0.00134014	2	-0.00358999	42	53.3836	-9.77627e-07
2	1	0	0	1	314.854	-0.725441	-0.7255	0.00131585	2	-0.00358882	42	54.1834	-9.54648e-07
2	1	0	1	1	315.654	-0.721442	-0.721489	0.00129054	2	-0.00358767	42	54.9832	-9.31108e-07
2	1	0	1	1	316.454	-0.717444	-0.7175	0.00128897	2	-0.00358653	42	55.7829	-9.24833e-07
2	1	0	0	1	317.253	-0.713445	-0.713512	0.00128332	2	-0.00358539	42	56.5826	-9.15663e-07
2	1	0	1	1	318.053	-0.709446	-0.709524	0.00125919	2	-0.00358427	42	57.3824	-8.93426e-07
2	1	0	0	1	318.853	-0.705447	-0.70552	0.00124498	2	-0.00358316	42	58.1822	-8.78358e-07
2	1	0	1	1	319.653	-0.701449	-0.701507	0.00122386	2	-0.00358207	42	58.9819	-8.5855e-07
2	1	0	1	1	320.452	-0.697449	-0.697493	0.00122466	2	-0.00358097	42	59.7817	-8.54194e-07
2	1	0	0	1	321.252	-0.693451	-0.693505	0.00120935	2	-0.0035799	42	60.5814	-8.38687e-07
2	1	0	1	1	322.052	-0.689452	-0.689513	0.0011851	2	-0.00357883	42	61.3812	-8.17143e-07
2	1	0	0	1	322.852	-0.685453	-0.685507	0.00117909	2	-0.00357778	42	62.181	-8.08277e-07
2	1	0	1	1	323.651	-0.681455	-0.681529	0.00116607	2	-0.00357674	42	62.9807	-7.94708e-07
2	1	0	1	1	324.451	-0.677456	-0.677543	0.00116327	2	-0.00357571	42	63.7804	-7.88168e-07
2	1	0	0	1	325.251	-0.673457	-0.673515	0.00112666	2	-0.0035747	42	64.5802	-7.58824e-07
2	1	0	1	1	326.051	-0.669458	-0.669533	0.00109372	2	-0.00357371	42	65.38	-7.32278e-07
2	1	0	1	1	326.85	-0.66546	-0.665527	0.00107163	2	-0.00357274	42	66.1797	-7.132e-07
2	1	0	1	1	327.65	-0.66146	-0.661538	0.00104641	2	-0.00357179	42	66.9795	-6.92237e-07
2	1	0	1	1	328.45	-0.657462	-0.65755	0.00103608	2	-0.00357086	42	67.7792	-6.81272e-07
2	1	0	0	1	329.25	-0.653463	-0.653527	0.0010263	2	-0.00356993	42	68.579	-6.70715e-07
2	1	0	1	1	330.05	-0.649464	-0.649512	0.00101048	2	-0.00356902	42	69.3788	-6.56318e-07
2	1	0	1	1	330.849	-0.645465	-0.645524	0.00100383	2	-0.00356811	42	70.1785	-6.48e-07
2	1	0	0	1	331.649	-0.641467	-0.641549	0.000988164	2	-0.00356722	42	70.9782	-6.33956e-07
2	1	0	1	1	332.449	-0.637468	-0.637548	0.000974056	2	-0.00356633	42	71.778	-6.21008e-07
2	1	0	0	1	333.249	-0.633469	-0.633551	0.000967586	2	-0.00356546	42	72.5778	-6.13015e-07
2	1	0	1	1	334.048	-0.629471	-0.629545	0.000956921	2	-0.00356459	42	73.3775	-6.02425e-07
2	1	0	1	1	334.848	-0.625472	-0.625541	0.000940213	2	-0.00356373	42	74.1772	-5.88142e-07
2	1	0	0	1	335.648	-0.621473	-0.62155	0.000944316	2	-0.00356288	42	74.977	-5.86939e-07
2	1	0	1	1	336.448	-0.617474	-0.617544	0.000926366	2	-0.00356204	42	75.7768	-5.72071e-07
2	1	0	0	1	337.247	-0.613475	-0.613535	0.000918465	2	-0.00356121	42	76.5766	-5.6351e-07
2	1	0	1	1	338.047	-0.609476	-0.609528	0.000909322	2	-0.00356038	42	77.3763	-5.54257e-07
2	1	0	1	1	338.847	-0.605478	-0.605534	0.00090459	2	-0.00355956	42	78.176	-5.4776e-07
2	1	0	0	1	339.647	-0.601479	-0.601533	0.000903556	2	-0.00355874	42	78.9758	-5.43518e-07
2	1	0	1	1	340.446	-0.59748	-0.597509	0.000898619	2	-0.00355793	42	79.7756	-5.36933e-07
2	1	0	1	1	341.246	-0.593482	-0.593536	0.000896924	2	-0.00355712	42	80.5753	-5.32357e-07
2	1	0	0	1	342.046	-0.589483	-0.589545	0.000895928	2	-0.00355631	42	81.375	-5.2819e-07
2	1	0	1	1	342.846	-0.585484	-0.585551	0.000895567	2	-0.0035555	42	82.1748	-5.244e-07
2	1	0	0	1	343.645	-0.581485	-0.581543	0.000901962	2	-0.00355469	42	82.9746	-5.2453e-07
2	1	0	1	1	344.445	-0.577486	-0.577571	0.000890678	2	-0.00355388	42	83.7744	-5.1443e-07
2	1	0	1	1	345.245	-0.573487	-0.573564	0.000882779	2	-0.00355307	42	84.5741	-5.0633e-07
2	1	0	0	1	346.045	-0.569489	-0.569537	0.000864279	2	-0.00355228	42	85.3738	-4.92238e-07
2	1	0	1	1	346.844	-0.56549	-0.565555	0.000865717	2	-0.0035515	42	86.1736	-4.89611e-07
2	1	0	0	1	347.644	-0.561491	-0.561551	0.000859461	2	-0.00355071	42	86.9734	-4.82631e-07
2	1	0	1	1	348.444	-0.557493	-0.557555	0.000846204	2	-0.00354993	42	87.7731	-4.71806e-07
2	1	0	1	1	349.244	-0.553494	-0.553564	0.000845722	2	-0.00354916	42	88.5728	-4.68161e-07
2	1	0	0	1	350.043	-0.549495	-0.549581	0.000851261	2	-0.00354838	42	89.3726	-4.67836e-07
2	1	0	1	1	350.843	-0.545496	-0.545567	0.000847547	2	-0.00354761	42	90.1724	-4.62394e-07
2	1	0	0	1	351.643	-0.541497	-0.541552	0.000828207	2	-0.00354685	42	90.9722	-4.48517e-07
2	1	0	1	1	352.443	-0.537498	-0.537549	0.000803113	2	-0.0035461	42	91.7719	-4.31712e-07
2	1	0	1	1	353.242	-0.5335	-0.533565	0.000794167	2	-0.00354536	42	92.5716	-4.23739e-07
2	1	0	0	1	354.042	-0.529501	-0.529568	0.000798483	2	-0.00354463	42	93.3714	-4.22851e-07
2	1	0	1	1	354.842	-0.525502	-0.52558	0.00078267	2	-0.00354391	42	94.1712	-4.11355e-07
2	1	0	1	1	355.642	-0.521504	-0.52157	0.000776896	2	-0.00354319	42	94.9709	-4.05206e-07
2	1	0	0	1	356.441	-0.517505	-0.517569	0.000775356	2	-0.00354248	42	95.7706	-4.013e-07
2	1	0	1	1	357.241	-0.513506	-0.513584	0.000778445	2	-0.00354177	42	96.5704	-3.99797e-07
2	1	0	0	1	358.041	-0.509507	-0.509578	0.000784761	2	-0.00354105	42	97.3702	-3.99896e-07
2	1	0	1	1	358.841	-0.505509	-0.505589	0.000785456	2	-0.00354034	42	98.1699	-3.97118e-07
2	1	0	1	1	359.64	-0.501509	-0.501566	0.000797191	2	-0.00353961	42	98.9697	-3.99844e-07
2	1	0	0	1	360.44	-0.497511	-0.497566	0.000796837	2	-0.00353888	42	99.7694	-3.96479e-07
2	1	0	1	1	361.24	-0.493512	-0.493583	0.000809829	2	-0.00353815	42	100.569	-3.99717e-07
2	1	0	0	1	362.04	-0.489513	-0.489583	0.000824534	2	-0.00353741	42	101.369	-4.03678e-07
2	1	0	1	1	362.839	-0.485514	-0.485585	0.000837051	2	-0.00353665	42	102.169	-4.0646e-07
2	1	0	1	1	363.639	-0.481516	-0.48162	0.000836521	2	-0.00353589	42	102.968	-4.02885e-07
2	1	0	0	1	364.439	-0.477517	-0.477615	0.000863927	2	-0.00353512	42	103.768	-4.12625e-07
2	1	0	1	1	365.239	-0.473518	-0.473617	0.000875918	2	-0.00353434	42	104.568	-4.1485e-07
2	1	0	1	1	366.038	-0.46952	-0.4696	0.00088201	2	-0.00353354	42	105.368	-4.14192e-07
2	1	0	0	1	366.838	-0.465521	-0.465604	0.000899894	2	-0.00353274	42	106.167	-4.18995e-07
2	1	0	1	1	367.638	-0.461522	-0.461611	0.00090943	2	-0.00353193	42	106.967	-4.19803e-07
2	1	0	0	1	368.438	-0.457523	-0.457611	0.000920571	2	-0.00353111	42	107.767	-4.21263e-07
2	1	0	1	1	369.238	-0.453524	-0.453632	0.000927981	2	-0.00353028	42	108.567	-4.20962e-07
2	1	0	1	1	370.037	-0.449525	-0.449614	0.000940978	2	-0.00352944	42	109.366	-4.23077e-07
2	1	0	0	1	370.837	-0.445527	-0.445603	0.00095225	2	-0.0035286	42	110.166	-4.24325e-07
2	1	0	1	1	371.637	-0.441528	-0.441623	0.000962696	2	-0.00352774	42	110.966	-4.25149e-07
2	1	0	0	1	372.437	-0.437529	-0.437617	0.000980216	2	-0.00352687	42	111.766	-4.28959e-07
2	1	0	1	1	373.236	-0.433531	-0.433619	0.000994022	2	-0.00352599	42	112.565	-4.31027e-07
2	1	0	1	1	374.036	-0.429532	-0.429642	0.00100917	2	-0.00352511	42	113.365	-4.33581e-07
2	1	0	0	1	374.836	-0.425533	-0.425659	0.00101813	2	-0.0035242	42	114.165	-4.33377e-07
2	1	0	1	1	375.636	-0.421534	-0.421639	0.00103468	2	-0.00352329	42	114.965	-4.36263e-07
2	1	0	0	1	376.435	-0.417535	-0.417626	0.00105222	2	-0.00352237	42	115.765	-4.39436e-07
2	1	0	1	1	377.235	-0.413536	-0.413639	0.00106023	2	-0.00352144	42	116.564	-4.38554e-07
2	1	0	1	1	378.035	-0.409538	-0.409601	0.00107313	2	-0.0035205	42	117.364	-4.39553e-07
2	1	0	0	1	378.835	-0.405539	-0.405606	0.00108945	2	-0.00351954	42	118.164	-4.41889e-07
2	1	0	1	1	379.634	-0.40154	-0.401629	0.0011042	2	-0.00351858	42	118.964	-4.43479e-07
2	1	0	1	1	380.434	-0.397542	-0.397632	0.00111726	2	-0.0035176	42	119.763	-4.44257e-07
2	1	0	0	1	381.234	-0.393543	-0.393633	0.0011326	2	-0.00351661	42	120.563	-4.4583e-07
2	1	0	1	1	382.034	-0.389544	-0.389623	0.00114339	2	-0.00351562	42	121.363	-4.45492e-07
2	1	0	0	1	382.833	-0.385545	-0.385616	0.00116023	2	-0.00351461	42	122.163	-4.47405e-07
2	1	0	1	1	383.633	-0.381546	-0.381626	0.00117109	2	-0.00351359	42	122.962	-4.46917e-07
2	1	0	1	1	384.433	-0.377547	-0.377651	0.00118363	2	-0.00351256	42	123.762	-4.46999e-07
2	1	0	0	1	385.233	-0.373549	-0.373632	0.0012056	2	-0.00351152	42	124.562	-4.5045e-07
2	1	0	1	1	386.032	-0.36955	-0.369614	0.00121583	2	-0.00351047	42	125.362	-4.49387e-07
2	1	0	0	1	386.832	-0.365551	-0.365624	0.0012211	2	-0.00350941	42	126.161	-4.46464e-07
2	1	0	1	1	387.632	-0.361553	-0.361634	0.00124459	2	-0.00350834	42	126.961	-4.50085e-07
2	1	0	1	1	388.432	-0.357554	-0.357645	0.00125885	2	-0.00350725	42	127.761	-4.50221e-07
2	1	0	0	1	389.231	-0.353555	-0.353662	0.0012683	2	-0.00350616	42	128.561	-4.48548e-07
2	1	0	1	1	390.031	-0.349556	-0.34965	0.00128245	2	-0.00350506	42	129.36	-4.4841e-07
2	1	0	1	1	390.831	-0.345558	-0.345656	0.00129693	2	-0.00350394	42	130.16	-4.4829e-07
2	1	0	1	1	391.631	-0.341558	-0.341636	0.00130319	2	-0.00350282	42	130.96	-4.45216e-07
2	1	0	1	1	392.43	-0.33756	-0.337663	0.00132463	2	-0.00350169	42	131.76	-4.47278e-07
2	1	0	0	1	393.23	-0.333561	-0.333658	0.00133613	2	-0.00350055	42	132.559	-4.45809e-07
2	1	0	1	1	394.03	-0.329562	-0.329651	0.00134989	2	-0.00349939	42	133.359	-4.44994e-07
2	1	0	1	1	394.83	-0.325564	-0.325642	0.00136728	2	-0.00349822	42	134.159	-4.45244e-07
2	1	0	0	1	395.629	-0.321565	-0.321648	0.00138736	2	-0.00349704	42	134.959	-4.4624e-07
2	1	0	1	1	396.429	-0.317566	-0.317635	0.00140337	2	-0.00349584	42	135.758	-4.45759e-07
2	1	0	0	1	397.229	-0.313567	-0.313654	0.00142187	2	-0.00349463	42	136.558	-4.45975e-07
2	1	0	1	1	398.029	-0.309569	-0.309673	0.00143219	2	-0.00349341	42	137.358	-4.4351e-07
2	1	0	1	1	398.828	-0.305569	-0.305667	0.00145152	2	-0.00349217	42	138.158	-4.43682e-07
2	1	0	0	1	399.628	-0.301571	-0.301657	0.00146943	2	-0.00349092	42	138.957	-4.43265e-07
2	1	0	0	1	400.249	-0.301571	-0.301635	0.0012283	2	-0.00349006	42	139.578	-3.70498e-07
2	1	0	1	1	401.048	-0.305569	-0.305666	0.00105157	2	-0.00348924	42	140.377	-3.21431e-07
2	1	0	1	1	401.848	-0.309569	-0.30967	0.000924527	2	-0.00348854	42	141.177	-2.86298e-07
2	1	0	0	1	402.648	-0.313567	-0.313641	0.00082519	2	-0.00348792	42	141.977	-2.58813e-07
2	1	0	1	1	403.448	-0.317566	-0.317646	0.000737623	2	-0.00348738	42	142.777	-2.34303e-07
2	1	0	0	1	404.247	-0.321565	-0.321644	0.000661699	2	-0.0034869	42	143.577	-2.12832e-07
2	1	0	1	1	405.047	-0.325564	-0.32566	0.000579504	2	-0.00348649	42	144.376	-1.88721e-07
2	1	0	1	1	405.847	-0.329562	-0.329661	0.0005094	2	-0.00348614	42	145.176	-1.6793e-07
2	1	0	0	1	406.647	-0.333561	-0.333647	0.000452062	2	-0.00348583	42	145.976	-1.50829e-07
2	1	0	1	1	407.446	-0.33756	-0.337644	0.000393028	2	-0.00348558	42	146.776	-1.32704e-07
2	1	0	1	1	408.246	-0.341558	-0.341622	0.000333801	2	-0.00348537	42	147.575	-1.14034e-07
2	1	0	0	1	409.046	-0.345557	-0.34565	0.000272809	2	-0.0034852	42	148.375	-9.42964e-08
2	1	0	1	1	409.846	-0.349556	-0.34964	0.000225567	2	-0.00348508	42	149.175	-7.88674e-08
2	1	0	0	1	410.645	-0.353555	-0.353627	0.000174476	2	-0.003485	42	149.975	-6.16993e-08
2	1	0	1	1	411.445	-0.357554	-0.357657	0.000128045	2	-0.00348495	42	150.774	-4.57962e-08
2	1	0	1	1	412.245	-0.361553	-0.361628	8.1232e-05	2	-0.00348495	42	0.000000000000000E+000	-2.93757e-08
2	1	0	0	1	413.045	-0.365551	-0.365624	3.56501e-05	2	-0.00348498	42	0.7997	-1.30345e-08
2	0	0	1	1	413.844	-0.36955	-0.369625	-9.58183e-06	2	-0.00348505	42	1.5995	3.54168e-09
2	0	0	0	1	414.644	-0.373549	-0.373626	-5.11071e-05	2	-0.00348515	42	2.3993	1.90949e-08
2	0	0	1	1	415.444	-0.377547	-0.377635	-9.00845e-05	2	-0.00348529	42	3.199	3.40191e-08
2	0	0	1	1	416.244	-0.381546	-0.38163	-0.00013291	2	-0.00348546	42	3.9987	5.07226e-08
2	0	0	0	1	417.043	-0.385545	-0.385609	-0.000171866	2	-0.00348566	42	4.7985	6.62729e-08
2	0	0	1	1	417.843	-0.389544	-0.389625	-0.000205894	2	-0.00348589	42	5.5983	8.02216e-08
2	0	0	1	1	418.643	-0.393542	-0.393624	-0.000239161	2	-0.00348615	42	6.398	9.41395e-08
2	0	0	1	1	419.443	-0.397542	-0.397647	-0.000281147	2	-0.00348644	42	7.1978	1.11797e-07
2	0	0	1	1	420.242	-0.40154	-0.401639	-0.000302809	2	-0.00348675	42	7.9975	1.2162e-07
2	0	0	1	1	420.822	-0.404489	-0.404547	-0.000572604	2	-0.003487	42	8.5767	2.31645e-07