File: Fig 2/Fig 2_np-Fe3O4_100mvs.mpt
mode	ox/red	error	control changes	counter inc.	time/s	control/V	Ewe/V	<I>/mA	cycle number	(Q-Qo)/C	I Range	step time/s	P/W
2	1	0	0	0	0.000000000000000E+000	-0.300041	-0.299805	0.614561	1	0.0000000E+000	39	0.000000000000000E+000	-0.000184249
2	1	0	1	0	0.1257	-0.312592	-0.312373	0.0352758	1	9.37619e-06	39	0.1201	-1.10192e-05
2	1	0	1	0	0.2557	-0.325594	-0.32539	0.019691	1	1.27407e-05	39	0.2501	-6.40723e-06
2	1	0	1	0	0.3857	-0.338595	-0.338378	0.0125604	1	1.47552e-05	39	0.3801	-4.25015e-06
2	1	0	1	0	0.5157	-0.351597	-0.351364	0.00868382	1	1.60716e-05	39	0.5101	-3.05118e-06
2	1	0	1	0	0.6457	-0.364598	-0.364374	0.00604704	1	1.69739e-05	39	0.6401	-2.20338e-06
2	1	0	1	0	0.7757	-0.3776	-0.37738	0.00413266	1	1.75786e-05	39	0.7701	-1.55959e-06
2	1	0	1	0	0.9057	-0.390601	-0.390363	0.00263686	1	1.79692e-05	39	0.9001	-1.02933e-06
2	1	0	1	0	1.0357	-0.403602	-0.403396	0.00139602	1	1.81805e-05	39	1.0301	-5.63149e-07
2	1	0	1	0	1.1657	-0.416604	-0.416373	0.00037934	1	1.8244e-05	39	1.1601	-1.57947e-07
2	0	0	1	0	1.2957	-0.429605	-0.429377	-0.000575723	1	1.81775e-05	39	0.12	2.47202e-07
2	0	0	1	0	1.4257	-0.442607	-0.442359	-0.00147023	1	1.79965e-05	39	0.25	6.5037e-07
2	0	0	1	0	1.5557	-0.455608	-0.45539	-0.00220645	1	1.77152e-05	39	0.38	1.00479e-06
2	0	0	1	0	1.6857	-0.46861	-0.468368	-0.00299153	1	1.73361e-05	39	0.51	1.40114e-06
2	0	0	1	0	1.8159	-0.481611	-0.481375	-0.00360983	1	1.6865e-05	39	0.6402	1.73768e-06
2	0	0	1	0	1.9459	-0.494613	-0.494393	-0.00432799	1	1.63044e-05	39	0.7702	2.13973e-06
2	0	0	1	0	2.0759	-0.507614	-0.507386	-0.00492078	1	1.56503e-05	39	0.9002	2.49674e-06
2	0	0	1	0	2.2059	-0.520615	-0.520366	-0.00590134	1	1.49049e-05	39	1.0302	3.07086e-06
2	0	0	1	0	2.3359	-0.533617	-0.533384	-0.00639747	1	1.40619e-05	39	1.1602	3.41231e-06
2	0	0	1	0	2.4659	-0.546618	-0.5464	-0.007139	1	1.31305e-05	39	1.2902	3.90075e-06
2	0	0	1	0	2.5959	-0.55962	-0.559403	-0.00772648	1	1.21068e-05	39	1.4202	4.32222e-06
2	0	0	1	0	2.7259	-0.572621	-0.572402	-0.00856681	1	1.09854e-05	39	1.5502	4.90366e-06
2	0	0	1	0	2.8559	-0.585623	-0.585399	-0.00949107	1	9.76088e-06	39	1.6802	5.55606e-06
2	0	0	1	0	2.9859	-0.598624	-0.598407	-0.0104238	1	8.42344e-06	39	1.8102	6.23768e-06
2	0	0	1	0	3.1159	-0.611626	-0.611405	-0.0111951	1	6.97491e-06	39	1.9402	6.84474e-06
2	0	0	1	0	3.2459	-0.624627	-0.624413	-0.012147	1	5.40798e-06	39	2.0702	7.58473e-06
2	0	0	1	0	3.3759	-0.637629	-0.637422	-0.0130776	1	3.71675e-06	39	2.2002	8.33595e-06
2	0	0	1	0	3.5059	-0.65063	-0.650402	-0.0141708	1	1.89704e-06	39	2.3302	9.21669e-06
2	0	0	1	0	3.6361	-0.663631	-0.663409	-0.0151949	1	-5.70843e-08	39	2.4604	1.00804e-05
2	0	0	1	0	3.7661	-0.676633	-0.67641	-0.0160958	1	-2.14333e-06	39	2.5904	1.08873e-05
2	0	0	1	0	3.8961	-0.689634	-0.689413	-0.0173037	1	-4.37122e-06	39	2.7204	1.19294e-05
2	0	0	1	0	4.0261	-0.702636	-0.702396	-0.0185116	1	-6.74947e-06	39	2.8504	1.30025e-05
2	0	0	1	0	4.1561	-0.715637	-0.715444	-0.0197354	1	-9.28558e-06	39	2.9804	1.41196e-05
2	0	0	1	0	4.2861	-0.728639	-0.728413	-0.0209571	1	-1.19741e-05	39	3.1104	1.52655e-05
2	0	0	1	0	4.4161	-0.74164	-0.74141	-0.0221459	1	-1.48291e-05	39	3.2404	1.64192e-05
2	0	0	1	0	4.5461	-0.754642	-0.754415	-0.0234813	1	-1.78561e-05	39	3.3704	1.77147e-05
2	0	0	1	0	4.6761	-0.767643	-0.767399	-0.0250802	1	-2.10671e-05	39	3.5004	1.92465e-05
2	0	0	1	0	4.8061	-0.780645	-0.780427	-0.0267215	1	-2.44708e-05	39	3.6304	2.08542e-05
2	0	0	1	0	4.9361	-0.793646	-0.793441	-0.0283034	1	-2.80806e-05	39	3.7604	2.2457e-05
2	0	0	1	0	5.0661	-0.806647	-0.806425	-0.0300201	1	-3.19229e-05	39	3.8904	2.4209e-05
2	0	0	1	0	5.1961	-0.819649	-0.819421	-0.0321831	1	-3.60285e-05	39	4.0204	2.63715e-05
2	0	0	1	0	5.3261	-0.83265	-0.832453	-0.0347902	1	-4.04372e-05	39	4.1504	2.89612e-05
2	0	0	1	0	5.4563	-0.845652	-0.845449	-0.037683	1	-4.52025e-05	39	4.2806	3.1859e-05
2	0	0	1	0	5.5863	-0.858653	-0.858439	-0.04075	1	-5.03452e-05	39	4.4106	3.49814e-05
2	0	0	1	0	5.7163	-0.871655	-0.871467	-0.0440773	1	-5.59113e-05	39	4.5406	3.84119e-05
2	0	0	1	0	5.8463	-0.884656	-0.884437	-0.0481239	1	-6.19615e-05	39	4.6706	4.25625e-05
2	0	0	1	0	5.9763	-0.897658	-0.897452	-0.0525932	1	-6.85582e-05	39	4.8006	4.71999e-05
2	0	0	1	0	6.1063	-0.910659	-0.910462	-0.0576554	1	-7.57553e-05	39	4.9306	5.2493e-05
2	0	0	1	0	6.2363	-0.92366	-0.923439	-0.0629746	1	-8.36436e-05	39	5.0606	5.81532e-05
2	0	0	1	0	6.3663	-0.936662	-0.936451	-0.0686997	1	-9.2256e-05	39	5.1906	6.43339e-05
2	0	0	1	0	6.4963	-0.949663	-0.949445	-0.0749517	1	-0.000101654	39	5.3206	7.11625e-05
2	0	0	1	0	6.6263	-0.962665	-0.962472	-0.0816945	1	-0.000111865	39	5.4506	7.86286e-05
2	0	0	1	0	6.7563	-0.975666	-0.975464	-0.0879614	1	-0.000122926	39	5.5806	8.58031e-05
2	0	0	1	0	6.8863	-0.988668	-0.988458	-0.093816	1	-0.000134797	39	5.7106	9.27332e-05
2	0	0	1	0	7.0163	-1.00167	-1.00146	-0.0989228	1	-0.000147413	39	5.8406	9.90674e-05
2	0	0	1	0	7.1463	-1.01467	-1.01447	-0.102487	1	-0.00016057	39	5.9706	0.00010397
2	0	0	1	0	7.2765	-1.02767	-1.02746	-0.104368	1	-0.000174097	39	6.1008	0.000107235
2	0	0	1	0	7.4065	-1.04067	-1.04046	-0.105472	1	-0.000187795	39	6.2308	0.00010974
2	0	0	1	0	7.5365	-1.05368	-1.05347	-0.105558	1	-0.000201611	39	6.3608	0.000111203
2	0	0	1	0	7.6665	-1.06668	-1.06649	-0.106349	1	-0.000215466	39	6.4908	0.000113419
2	0	0	1	0	7.7965	-1.07968	-1.07947	-0.106744	1	-0.000229377	39	6.6208	0.000115227
2	0	0	1	0	7.9265	-1.09268	-1.0925	-0.108341	1	-0.000243393	39	6.7508	0.000118362
2	0	0	1	0	8.0565	-1.10568	-1.10546	-0.109225	1	-0.000257493	39	6.8808	0.000120744
2	0	0	1	0	8.1865	-1.11868	-1.11845	-0.112785	1	-0.000271907	39	7.0108	0.000126144
2	0	0	1	0	8.3165	-1.13168	-1.13147	-0.122169	1	-0.000287089	39	7.1408	0.000138231
2	0	0	1	0	8.4465	-1.14469	-1.14447	-0.14918	1	-0.000304586	39	7.2708	0.000170732
2	0	0	1	0	8.5765	-1.15769	-1.15745	-0.203499	1	-0.000327204	39	7.4008	0.000235539
2	0	0	1	0	8.7065	-1.17069	-1.17047	-0.29546	1	-0.000359245	39	7.5308	0.000345827
2	0	0	1	0	8.8365	-1.18369	-1.18347	-0.431659	1	-0.000405991	39	7.6608	0.000510857
2	0	0	1	0	8.9665	-1.19669	-1.19647	-0.612228	1	-0.000473653	39	7.7908	0.000732514
2	0	0	1	0	9.0967	-1.20969	-1.20948	-0.800354	1	-0.000565771	39	7.921	0.000968008
2	0	0	1	0	9.2267	-1.22269	-1.22248	-0.973638	1	-0.000681377	39	8.051	0.00119025
2	0	0	1	0	9.3567	-1.2357	-1.23547	-1.12792	1	-0.000818258	39	8.181	0.00139351
2	0	0	1	0	9.4867	-1.2487	-1.24848	-1.26461	1	-0.000974013	39	8.311	0.00157884
2	0	0	1	0	9.6167	-1.2617	-1.26149	-1.38498	1	-0.00114643	39	8.441	0.00174714
2	0	0	1	0	9.7467	-1.2747	-1.27449	-1.49262	1	-0.00133367	39	8.571	0.00190232
2	0	0	1	0	9.8767	-1.2877	-1.2875	-1.58494	1	-0.00153392	39	8.701	0.00204061
2	0	0	1	0	10.0067	-1.3007	-1.30048	-1.64552	1	-0.00174451	39	8.831	0.00213996
2	0	0	1	0	10.1367	-1.3137	-1.31347	-1.62095	1	-0.00195814	39	8.961	0.00212907
2	0	0	1	0	10.2667	-1.32671	-1.32648	-1.51634	1	-0.00216176	39	9.091	0.0020114
2	0	0	1	0	10.3967	-1.33971	-1.33948	-1.49711	1	-0.00235693	39	9.221	0.00200536
2	0	0	1	1	10.5051	-1.34951	-1.34928	-1.51033	2	-0.00252006	39	9.3294	0.00203785
2	0	0	1	1	10.6351	-1.33651	-1.33629	-1.33174	2	-0.00270457	39	9.4594	0.0017796
2	0	0	1	1	10.7651	-1.32351	-1.32329	-1.17391	2	-0.00286705	39	9.5894	0.00155341
2	0	0	1	1	10.8951	-1.3105	-1.3103	-1.03119	2	-0.00301012	39	9.7194	0.00135117
2	0	0	1	1	11.0251	-1.2975	-1.2973	-0.903954	2	-0.00313563	39	9.8494	0.0011727
2	0	0	1	1	11.1551	-1.2845	-1.28428	-0.789876	2	-0.00324554	39	9.9794	0.00101442
2	0	0	1	1	11.2851	-1.2715	-1.27128	-0.68828	2	-0.00334147	39	10.1094	0.000874996
2	0	0	1	1	11.4151	-1.2585	-1.25827	-0.597874	2	-0.00342494	39	10.2394	0.000752288
2	0	0	1	1	11.5451	-1.2455	-1.24527	-0.517656	2	-0.0034973	39	10.3694	0.000644621
2	0	0	1	1	11.6751	-1.23249	-1.23225	-0.446246	2	-0.00355978	39	10.4994	0.000549889
2	0	0	1	1	11.8051	-1.21949	-1.21927	-0.382997	2	-0.00361354	39	10.6294	0.000466977
2	0	0	1	1	11.9351	-1.20649	-1.20626	-0.325785	2	-0.00365946	39	10.7594	0.000392983
2	0	0	1	1	12.0653	-1.19349	-1.19326	-0.273399	2	-0.00369836	39	10.8896	0.000326235
2	0	0	1	1	12.1953	-1.18049	-1.18026	-0.226386	2	-0.00373073	39	11.0196	0.000267194
2	0	0	1	1	12.3253	-1.16749	-1.16727	-0.184582	2	-0.00375731	39	11.1496	0.000215458
2	0	0	1	1	12.4553	-1.15449	-1.15426	-0.145903	2	-0.00377864	39	11.2796	0.000168409
2	0	0	1	1	12.5853	-1.14149	-1.14127	-0.1122	2	-0.00379532	39	11.4096	0.00012805
2	0	0	1	1	12.7153	-1.12848	-1.12827	-0.0829013	2	-0.00380791	39	11.5396	9.35352e-05
2	0	0	1	1	12.8453	-1.11548	-1.11527	-0.0580686	2	-0.00381698	39	11.6696	6.47625e-05
2	0	0	1	1	12.9753	-1.10248	-1.10226	-0.0363359	2	-0.00382301	39	11.7996	4.00516e-05
2	0	0	1	1	13.1053	-1.08948	-1.08926	-0.0176946	2	-0.00382643	39	11.9296	1.9274e-05
2	0	0	1	1	13.2353	-1.07648	-1.07628	-0.00172626	2	-0.00382762	39	12.0596	1.85793e-06
2	1	0	1	1	13.3653	-1.06348	-1.06325	0.0117604	2	-0.0038269	39	0.11	-1.25043e-05
2	1	0	1	1	13.4953	-1.05047	-1.05027	0.0237109	2	-0.00382452	39	0.24	-2.49028e-05
2	1	0	1	1	13.6253	-1.03747	-1.03725	0.0355042	2	-0.0038206	39	0.37	-3.68269e-05
2	1	0	1	1	13.7553	-1.02447	-1.02426	0.0473612	2	-0.00381517	39	0.5	-4.85102e-05
2	1	0	1	1	13.8855	-1.01147	-1.01126	0.0589378	2	-0.00380821	39	0.6302	-5.96015e-05
2	1	0	1	1	14.0155	-0.998469	-0.99826	0.0685585	2	-0.00379984	39	0.7602	-6.84392e-05
2	1	0	1	1	14.1455	-0.985467	-0.985253	0.0715523	2	-0.00379059	39	0.8902	-7.04971e-05
2	1	0	1	1	14.2755	-0.972466	-0.972253	0.0745896	2	-0.00378106	39	1.0202	-7.252e-05
2	1	0	1	1	14.4055	-0.959464	-0.959236	0.0798408	2	-0.003771	39	1.1502	-7.65862e-05
2	1	0	1	1	14.5355	-0.946463	-0.946253	0.0879041	2	-0.0037601	39	1.2802	-8.31796e-05
2	1	0	1	1	14.6655	-0.933462	-0.933255	0.100275	2	-0.00374787	39	1.4102	-9.35824e-05
2	1	0	1	1	14.7955	-0.92046	-0.920245	0.117026	2	-0.00373373	39	1.5402	-0.000107692
2	1	0	1	1	14.9255	-0.907459	-0.907248	0.137937	2	-0.00371712	39	1.6702	-0.000125143
2	1	0	1	1	15.0555	-0.894457	-0.894264	0.161681	2	-0.0036976	39	1.8002	-0.000144585
2	1	0	1	1	15.1855	-0.881456	-0.881243	0.185825	2	-0.00367495	39	1.9302	-0.000163757
2	1	0	1	1	15.3155	-0.868454	-0.868246	0.207835	2	-0.00364927	39	2.0602	-0.000180452
2	1	0	1	1	15.4455	-0.855453	-0.855255	0.22426	2	-0.00362105	39	2.1902	-0.0001918
2	1	0	1	1	15.5755	-0.842451	-0.842257	0.233334	2	-0.00359114	39	2.3202	-0.000196527
2	1	0	1	1	15.7057	-0.82945	-0.829247	0.234703	2	-0.00356055	39	2.4504	-0.000194627
2	1	0	1	1	15.8357	-0.816449	-0.816235	0.229763	2	-0.00353025	39	2.5804	-0.000187541
2	1	0	1	1	15.9657	-0.803447	-0.803245	0.220933	2	-0.00350088	39	2.7104	-0.000177463
2	1	0	1	1	16.0957	-0.790446	-0.790244	0.209907	2	-0.0034728	39	2.8404	-0.000165878
2	1	0	1	1	16.2257	-0.777444	-0.777219	0.198063	2	-0.00344623	39	2.9704	-0.000153938
2	1	0	1	1	16.3557	-0.764443	-0.764216	0.186194	2	-0.00342121	39	3.1004	-0.000142292
2	1	0	1	1	16.4857	-0.751441	-0.751209	0.17468	2	-0.00339771	39	3.2304	-0.000131221
2	1	0	1	1	16.6157	-0.73844	-0.73822	0.163742	2	-0.00337568	39	3.3604	-0.000120878
2	1	0	1	1	16.7457	-0.725438	-0.725227	0.153835	2	-0.00335498	39	3.4904	-0.000111566
2	1	0	1	1	16.8757	-0.712437	-0.712221	0.14506	2	-0.0033355	39	3.6204	-0.000103315
2	1	0	1	1	17.0057	-0.699435	-0.699202	0.137541	2	-0.00331709	39	3.7504	-9.61688e-05
2	1	0	1	1	17.1357	-0.686434	-0.686208	0.131201	2	-0.0032996	39	3.8804	-9.0031e-05
2	1	0	1	1	17.2657	-0.673433	-0.673209	0.125769	2	-0.00328286	39	4.0104	-8.46687e-05
2	1	0	1	1	17.3957	-0.660431	-0.660209	0.1214	2	-0.00326674	39	4.1404	-8.01496e-05
2	1	0	1	1	17.5259	-0.64743	-0.647209	0.118508	2	-0.00325107	39	4.2706	-7.66991e-05
2	1	0	1	1	17.6559	-0.634428	-0.634201	0.116458	2	-0.00323576	39	4.4006	-7.3858e-05
2	1	0	1	1	17.7859	-0.621427	-0.621198	0.115362	2	-0.00322066	39	4.5306	-7.16626e-05
2	1	0	1	1	17.9159	-0.608425	-0.60821	0.114505	2	-0.00320568	39	4.6606	-6.96429e-05
2	1	0	1	1	18.0459	-0.595424	-0.59521	0.114293	2	-0.00319074	39	4.7906	-6.80285e-05
2	1	0	1	1	18.1759	-0.582422	-0.58221	0.114601	2	-0.0031758	39	4.9206	-6.67221e-05
2	1	0	1	1	18.3059	-0.569421	-0.569207	0.114649	2	-0.00316085	39	5.0506	-6.5259e-05
2	1	0	1	1	18.4359	-0.556419	-0.556201	0.114514	2	-0.00314592	39	5.1806	-6.36929e-05
2	1	0	1	1	18.5659	-0.543418	-0.543204	0.113681	2	-0.00313104	39	5.3106	-6.17521e-05
2	1	0	1	1	18.6959	-0.530417	-0.530192	0.112143	2	-0.00311631	39	5.4406	-5.94574e-05
2	1	0	1	1	18.8259	-0.517415	-0.517173	0.110361	2	-0.00310178	39	5.5706	-5.70759e-05
2	1	0	1	1	18.9559	-0.504414	-0.504218	0.10831	2	-0.00308752	39	5.7006	-5.46119e-05
2	1	0	1	1	19.0859	-0.491412	-0.491198	0.106072	2	-0.00307354	39	5.8306	-5.21022e-05
2	1	0	1	1	19.2161	-0.478411	-0.478214	0.103922	2	-0.00305982	39	5.9608	-4.96971e-05
2	1	0	1	1	19.3461	-0.465409	-0.465211	0.1022	2	-0.00304637	39	6.0908	-4.75448e-05
2	1	0	1	1	19.4761	-0.452408	-0.452205	0.101409	2	-0.00303307	39	6.2208	-4.58576e-05
2	1	0	1	1	19.6061	-0.439406	-0.439202	0.101739	2	-0.00301983	39	6.3508	-4.46841e-05
2	1	0	1	1	19.7361	-0.426405	-0.426218	0.102148	2	-0.00300654	39	6.4808	-4.35375e-05
2	1	0	1	1	19.8661	-0.413403	-0.413186	0.102217	2	-0.0029932	39	6.6108	-4.22347e-05
2	1	0	1	1	19.9961	-0.400402	-0.400178	0.101331	2	-0.00297989	39	6.7408	-4.05505e-05
2	1	0	1	1	20.1261	-0.387401	-0.38719	0.0990738	2	-0.00296678	39	6.8708	-3.83604e-05
2	1	0	1	1	20.2561	-0.374399	-0.374186	0.0960801	2	-0.00295403	39	7.0008	-3.59518e-05
2	1	0	1	1	20.3861	-0.361398	-0.361179	0.0922609	2	-0.00294175	39	7.1308	-3.33227e-05
2	1	0	1	1	20.5161	-0.348396	-0.348195	0.089247	2	-0.00292992	39	7.2608	-3.10753e-05
2	1	0	1	1	20.6461	-0.335395	-0.33519	0.0872795	2	-0.00291839	39	7.3908	-2.92552e-05
2	1	0	1	1	20.7761	-0.322393	-0.322197	0.0861013	2	-0.00290708	39	7.5208	-2.77416e-05
2	1	0	1	1	20.9061	-0.309392	-0.309204	0.0853407	2	-0.00289589	39	7.6508	-2.63877e-05
2	1	0	1	1	21.0259	-0.302591	-0.302374	0.0755329	2	-0.00288585	39	7.7706	-2.28392e-05
2	1	0	1	1	21.1559	-0.315593	-0.315374	0.0582048	2	-0.00287731	39	7.9006	-1.83563e-05
2	1	0	1	1	21.2859	-0.328594	-0.328383	0.0466261	2	-0.0028706	39	8.0306	-1.53112e-05
2	1	0	1	1	21.4159	-0.341595	-0.34137	0.0379625	2	-0.00286518	39	8.1606	-1.29593e-05
2	1	0	1	1	21.5459	-0.354597	-0.354371	0.0313833	2	-0.00286074	39	8.2906	-1.11213e-05
2	1	0	1	1	21.6759	-0.367598	-0.36737	0.0262723	2	-0.00285705	39	8.4206	-9.65166e-06
2	1	0	1	1	21.8059	-0.3806	-0.38038	0.0221801	2	-0.00285396	39	8.5506	-8.43684e-06
2	1	0	1	1	21.9359	-0.393601	-0.393369	0.0188591	2	-0.00285137	39	8.6806	-7.41859e-06
2	1	0	1	1	22.0659	-0.406603	-0.406411	0.015842	2	-0.00284916	39	8.8106	-6.43837e-06
2	1	0	1	1	22.1959	-0.419604	-0.419401	0.0134517	2	-0.0028473	39	8.9406	-5.64166e-06
2	1	0	1	1	22.3259	-0.432606	-0.432408	0.0115628	2	-0.00284572	39	9.0706	-4.99986e-06
2	1	0	1	1	22.4559	-0.445607	-0.445388	0.0100723	2	-0.00284438	39	9.2006	-4.4861e-06
2	1	0	1	1	22.5859	-0.458609	-0.458387	0.00841611	2	-0.00284324	39	9.3306	-3.85784e-06
2	1	0	1	1	22.7159	-0.47161	-0.471387	0.00707116	2	-0.00284229	39	9.4606	-3.33325e-06
2	1	0	1	1	22.8461	-0.484611	-0.484416	0.00586113	2	-0.00284149	39	9.5908	-2.83922e-06
2	1	0	1	1	22.9761	-0.497613	-0.4974	0.00494643	2	-0.00284083	39	9.7208	-2.46035e-06
2	1	0	1	1	23.1061	-0.510614	-0.510423	0.00403493	2	-0.00284031	39	9.8508	-2.05952e-06
2	1	0	1	1	23.2361	-0.523616	-0.523383	0.00331146	2	-0.00283989	39	9.9808	-1.73316e-06
2	1	0	1	1	23.3661	-0.536617	-0.536416	0.00226185	2	-0.00283958	39	10.1108	-1.21329e-06
2	1	0	1	1	23.4961	-0.549619	-0.549398	0.00168711	2	-0.00283937	39	10.2408	-9.26893e-07
2	1	0	1	1	23.6261	-0.56262	-0.562393	0.000841468	2	-0.00283925	39	10.3708	-4.73236e-07
2	1	0	1	1	23.7561	-0.575622	-0.575396	0.000312411	2	-0.00283923	39	0.000000000000000E+000	-1.7976e-07
2	0	0	1	1	23.8861	-0.588623	-0.588398	-0.000285699	2	-0.00283929	39	0.13	1.68104e-07
2	0	0	1	1	24.0161	-0.601624	-0.6014	-0.00115365	2	-0.00283943	39	0.26	6.93805e-07
2	0	0	1	1	24.1461	-0.614626	-0.614401	-0.00185374	2	-0.00283966	39	0.39	1.13894e-06
2	0	0	1	1	24.2761	-0.627627	-0.627402	-0.00241998	2	-0.00283998	39	0.52	1.5183e-06
2	0	0	1	1	24.4061	-0.640629	-0.640398	-0.0030914	2	-0.00284039	39	0.65	1.97973e-06
2	0	0	1	1	24.5361	-0.65363	-0.653402	-0.00389029	2	-0.0028409	39	0.78	2.54193e-06
2	0	0	1	1	24.6663	-0.666632	-0.666419	-0.00485279	2	-0.00284151	39	0.9102	3.23399e-06
2	0	0	1	1	24.7963	-0.679633	-0.679408	-0.00602245	2	-0.00284225	39	1.0402	4.0917e-06
2	0	0	1	1	24.9263	-0.692635	-0.692416	-0.00678948	2	-0.00284311	39	1.1702	4.70114e-06
2	0	0	1	1	25.0563	-0.705636	-0.705422	-0.0079039	2	-0.00284412	39	1.3002	5.57558e-06
2	0	0	1	1	25.1863	-0.718638	-0.718425	-0.00902681	2	-0.00284527	39	1.4302	6.48509e-06
2	0	0	1	1	25.3163	-0.731639	-0.73143	-0.0104557	2	-0.00284658	39	1.5602	7.6476e-06
2	0	0	1	1	25.4463	-0.744641	-0.744414	-0.011687	2	-0.00284805	39	1.6902	8.69994e-06
2	0	0	1	1	25.5763	-0.757642	-0.757409	-0.0132242	2	-0.00284972	39	1.8202	1.00161e-05
2	0	0	1	1	25.7063	-0.770643	-0.770423	-0.0150695	2	-0.00285161	39	1.9502	1.16099e-05
2	0	0	1	1	25.8363	-0.783645	-0.783439	-0.0175565	2	-0.00285379	39	2.0802	1.37545e-05
2	0	0	1	1	25.9663	-0.796646	-0.796426	-0.0210092	2	-0.00285634	39	2.2102	1.67323e-05
2	0	0	1	1	26.0963	-0.809648	-0.809431	-0.024669	2	-0.00285934	39	2.3402	1.99679e-05
2	0	0	1	1	26.2263	-0.822649	-0.822459	-0.0290279	2	-0.00286288	39	2.4702	2.38743e-05
2	0	0	1	1	26.3563	-0.835651	-0.835448	-0.0341092	2	-0.00286703	39	2.6002	2.84964e-05
2	0	0	1	1	26.4865	-0.848652	-0.848462	-0.0395485	2	-0.00287188	39	2.7304	3.35554e-05
2	0	0	1	1	26.6165	-0.861654	-0.86145	-0.044873	2	-0.00287742	39	2.8604	3.86559e-05
2	0	0	1	1	26.7465	-0.874655	-0.87445	-0.0494242	2	-0.00288359	39	2.9904	4.3219e-05
2	0	0	1	1	26.8765	-0.887656	-0.887479	-0.0526145	2	-0.00289029	39	3.1204	4.66942e-05
2	0	0	1	1	27.0065	-0.900658	-0.900464	-0.0547551	2	-0.00289734	39	3.2504	4.9305e-05
2	0	0	1	1	27.1365	-0.913659	-0.913464	-0.0559428	2	-0.00290461	39	3.3804	5.11018e-05
2	0	0	1	1	27.2665	-0.926661	-0.926469	-0.0563646	2	-0.00291197	39	3.5104	5.22201e-05
2	0	0	1	1	27.3965	-0.939662	-0.93947	-0.0565611	2	-0.00291935	39	3.6404	5.31375e-05
2	0	0	1	1	27.5265	-0.952664	-0.952464	-0.0569871	2	-0.00292677	39	3.7704	5.42782e-05
2	0	0	1	1	27.6565	-0.965665	-0.965467	-0.0583002	2	-0.00293432	39	3.9004	5.62869e-05
2	0	0	1	1	27.7865	-0.978667	-0.978462	-0.0612143	2	-0.00294214	39	4.0304	5.98958e-05
2	0	0	1	1	27.9165	-0.991668	-0.991476	-0.0654414	2	-0.00295042	39	4.1604	6.48836e-05
2	0	0	1	1	28.0465	-1.00467	-1.00447	-0.0711229	2	-0.00295931	39	4.2904	7.14406e-05
2	0	0	1	1	28.1766	-1.01768	-1.01747	-0.0778812	2	-0.00296903	39	4.4205	7.92421e-05
2	0	0	1	1	28.3067	-1.03067	-1.03046	-0.0864783	2	-0.00297977	39	4.5506	8.91129e-05
2	0	0	1	1	28.4367	-1.04367	-1.04348	-0.0971189	2	-0.00299175	39	4.6806	0.000101342
2	0	0	1	1	28.5667	-1.05668	-1.05648	-0.108878	2	-0.00300518	39	4.8106	0.000115027
2	0	0	1	1	28.6967	-1.06968	-1.06949	-0.12157	2	-0.00302019	39	4.9406	0.000130018
2	0	0	1	1	28.8267	-1.08268	-1.08248	-0.13391	2	-0.00303685	39	5.0706	0.000144954
2	0	0	1	1	28.9567	-1.09568	-1.0955	-0.145298	2	-0.00305509	39	5.2006	0.000159174
2	0	0	1	1	29.0867	-1.10868	-1.10846	-0.155608	2	-0.00307471	39	5.3306	0.000172486
2	0	0	1	1	29.2167	-1.12168	-1.12149	-0.167039	2	-0.00309571	39	5.4606	0.000187333
2	0	0	1	1	29.3467	-1.13468	-1.13448	-0.178478	2	-0.00311821	39	5.5906	0.00020248
2	0	0	1	1	29.4767	-1.14769	-1.14747	-0.189396	2	-0.00314217	39	5.7206	0.000217327
2	0	0	1	1	29.6067	-1.16069	-1.16049	-0.203008	2	-0.0031677	39	5.8506	0.000235588
2	0	0	1	1	29.7367	-1.17369	-1.17348	-0.224599	2	-0.00319546	39	5.9806	0.000263564
2	0	0	1	1	29.8667	-1.18669	-1.18647	-0.257383	2	-0.00322669	39	6.1106	0.000305376
2	0	0	1	1	29.9969	-1.19969	-1.19948	-0.301004	2	-0.00326298	39	6.2408	0.00036105
2	0	0	1	1	30.1269	-1.21269	-1.21246	-0.353814	2	-0.0033055	39	6.3708	0.000428987
2	0	0	1	1	30.2569	-1.22569	-1.22549	-0.414424	2	-0.00335545	39	6.5008	0.000507872
2	0	0	1	1	30.3869	-1.2387	-1.23849	-0.479074	2	-0.00341359	39	6.6308	0.000593329
2	0	0	1	1	30.5169	-1.2517	-1.25147	-0.544468	2	-0.00348012	39	6.7608	0.000681387
2	0	0	1	1	30.6469	-1.2647	-1.26446	-0.611059	2	-0.00355527	39	6.8908	0.000772662
2	0	0	1	1	30.7769	-1.2777	-1.27747	-0.681777	2	-0.00363929	39	7.0208	0.000870952
2	0	0	1	1	30.9069	-1.2907	-1.29047	-0.75673	2	-0.00373282	39	7.1508	0.000976539
2	0	0	1	1	31.0369	-1.3037	-1.30346	-0.841397	2	-0.00383672	39	7.2808	0.00109673
2	0	0	1	1	31.1669	-1.3167	-1.31645	-0.936593	2	-0.00395224	39	7.4108	0.00123298
2	0	0	1	1	31.2969	-1.32971	-1.32948	-1.04549	2	-0.00408101	39	7.5408	0.00138995
2	0	0	1	1	31.4269	-1.34271	-1.34247	-1.16335	2	-0.00422466	39	7.6708	0.00156176
2	0	0	1	0	31.5353	-1.34651	-1.3463	-1.20402	3	-0.00435539	39	7.7792	0.00162096
2	0	0	1	0	31.6653	-1.33351	-1.33328	-1.08022	3	-0.00450381	39	7.9092	0.00144024
2	0	0	1	0	31.7953	-1.3205	-1.32028	-0.961373	3	-0.00463636	39	8.0392	0.00126928
2	0	0	1	0	31.9253	-1.3075	-1.3073	-0.849748	3	-0.00475391	39	8.1692	0.00111087
2	0	0	1	0	32.0553	-1.2945	-1.2943	-0.748602	3	-0.00485767	39	8.2992	0.000968913
2	0	0	1	0	32.1853	-1.2815	-1.28128	-0.655837	3	-0.00494874	39	8.4292	0.000840312
2	0	0	1	0	32.3153	-1.2685	-1.26828	-0.572909	3	-0.00502848	39	8.5592	0.000726608
2	0	0	1	0	32.4453	-1.2555	-1.25527	-0.497991	3	-0.00509795	39	8.6892	0.000625111
2	0	0	1	0	32.5753	-1.2425	-1.24228	-0.430999	3	-0.0051582	39	8.8192	0.000535422
2	0	0	1	0	32.7053	-1.22949	-1.22927	-0.372055	3	-0.00521029	39	8.9492	0.000457356
2	0	0	1	0	32.8353	-1.21649	-1.21627	-0.318486	3	-0.00525502	39	9.0792	0.000387366
2	0	0	1	0	32.9653	-1.20349	-1.20328	-0.270169	3	-0.00529315	39	9.2092	0.000325089
2	0	0	1	0	33.0955	-1.19049	-1.19028	-0.22706	3	-0.0053254	39	9.3394	0.000270264
2	0	0	1	0	33.2255	-1.17749	-1.17728	-0.188093	3	-0.0053523	39	9.4694	0.000221439
2	0	0	1	0	33.3555	-1.16449	-1.16429	-0.153351	3	-0.00537443	39	9.5994	0.000178544
2	0	0	1	0	33.4855	-1.15149	-1.15128	-0.122369	3	-0.00539226	39	9.7294	0.000140881
2	0	0	1	0	33.6155	-1.13848	-1.13824	-0.0948317	3	-0.00540628	39	9.8594	0.000107941
2	0	0	1	0	33.7455	-1.12548	-1.12528	-0.0706821	3	-0.00541694	39	9.9894	7.95371e-05
2	0	0	1	0	33.8755	-1.11248	-1.11227	-0.0491055	3	-0.00542466	39	10.1194	5.46184e-05
2	0	0	1	0	34.0055	-1.09948	-1.09927	-0.0307681	3	-0.00542979	39	10.2494	3.38223e-05
2	0	0	1	0	34.1355	-1.08648	-1.08627	-0.0151864	3	-0.0054327	39	10.3794	1.64966e-05
2	0	0	1	0	34.2655	-1.07348	-1.07327	-0.00174857	3	-0.00543371	39	10.5094	1.87669e-06
2	1	0	1	0	34.3955	-1.06048	-1.06028	0.00999903	3	-0.00543308	39	0.11	-1.06017e-05
2	1	0	1	0	34.5255	-1.04747	-1.04728	0.0207384	3	-0.00543102	39	0.24	-2.17189e-05
2	1	0	1	0	34.6555	-1.03447	-1.03428	0.0310317	3	-0.0054276	39	0.37	-3.20954e-05
2	1	0	1	0	34.7855	-1.02147	-1.02126	0.0416691	3	-0.00542283	39	0.5	-4.25551e-05
2	1	0	1	0	34.9157	-1.00847	-1.00825	0.0523299	3	-0.00541664	39	0.6302	-5.27617e-05
2	1	0	1	0	35.0457	-0.995469	-0.995263	0.0575142	3	-0.00540935	39	0.7602	-5.72418e-05
2	1	0	1	0	35.1757	-0.982467	-0.982257	0.0610338	3	-0.00540164	39	0.8902	-5.99509e-05
2	1	0	1	0	35.3057	-0.969466	-0.969286	0.0664455	3	-0.00539334	39	1.0202	-6.44047e-05
2	1	0	1	0	35.4357	-0.956464	-0.956262	0.0755149	3	-0.0053841	39	1.1502	-7.2212e-05
2	1	0	1	0	35.5657	-0.943463	-0.94326	0.0890802	3	-0.0053734	39	1.2802	-8.40258e-05
2	1	0	1	0	35.6957	-0.930461	-0.930265	0.108191	3	-0.00536057	39	1.4102	-0.000100646
2	1	0	1	0	35.8257	-0.91746	-0.917252	0.131732	3	-0.00534498	39	1.5402	-0.000120831
2	1	0	1	0	35.9557	-0.904458	-0.904239	0.159217	3	-0.00532605	39	1.6702	-0.000143971
2	1	0	1	0	36.0857	-0.891457	-0.891257	0.188194	3	-0.00530342	39	1.8002	-0.000167729
2	1	0	1	0	36.2157	-0.878455	-0.878267	0.217307	3	-0.00527697	39	1.9302	-0.000190854
2	1	0	1	0	36.3457	-0.865454	-0.865271	0.243066	3	-0.00524692	39	2.0602	-0.000210318
2	1	0	1	0	36.4757	-0.852453	-0.852278	0.262564	3	-0.00521391	39	2.1902	-0.000223777
2	1	0	1	0	36.6057	-0.839451	-0.839238	0.272308	3	-0.00517899	39	2.3202	-0.000228531
2	1	0	1	0	36.7359	-0.82645	-0.826263	0.272565	3	-0.00514337	39	2.4504	-0.00022521
2	1	0	1	0	36.8659	-0.813448	-0.813245	0.265359	3	-0.00510827	39	2.5804	-0.000215802
2	1	0	1	0	36.9959	-0.800447	-0.800245	0.253277	3	-0.00507447	39	2.7104	-0.000202683
2	1	0	1	0	37.1259	-0.787445	-0.78724	0.2387	3	-0.00504245	39	2.8404	-0.000187914
2	1	0	1	0	37.2559	-0.774444	-0.774231	0.22316	3	-0.00501239	39	2.9704	-0.000172777
2	1	0	1	0	37.3859	-0.761442	-0.761237	0.208155	3	-0.00498432	39	3.1004	-0.000158455
2	1	0	1	0	37.5159	-0.748441	-0.748239	0.193561	3	-0.00495816	39	3.2304	-0.00014483
2	1	0	1	0	37.6459	-0.735439	-0.735247	0.180301	3	-0.0049338	39	3.3604	-0.000132566
2	1	0	1	0	37.7759	-0.722438	-0.722232	0.16814	3	-0.00491112	39	3.4904	-0.000121436
2	1	0	1	0	37.9059	-0.709437	-0.709246	0.157311	3	-0.00488993	39	3.6204	-0.000111572
2	1	0	1	0	38.0359	-0.696435	-0.696239	0.147733	3	-0.00487006	39	3.7504	-0.000102858
2	1	0	1	0	38.1659	-0.683434	-0.683227	0.139661	3	-0.00485133	39	3.8804	-9.54204e-05
2	1	0	1	0	38.2959	-0.670432	-0.670217	0.133069	3	-0.00483356	39	4.0104	-8.91853e-05
2	1	0	1	0	38.4261	-0.657431	-0.657233	0.127757	3	-0.00481655	39	4.1406	-8.39658e-05
2	1	0	1	0	38.5561	-0.644429	-0.644225	0.123424	3	-0.00480019	39	4.2706	-7.95129e-05
2	1	0	1	0	38.6861	-0.631428	-0.631242	0.120031	3	-0.00478433	39	4.4006	-7.57686e-05
2	1	0	1	0	38.8161	-0.618426	-0.618216	0.117401	3	-0.00476885	39	4.5306	-7.25789e-05
2	1	0	1	0	38.9461	-0.605425	-0.605213	0.115599	3	-0.00475365	39	4.6606	-6.9962e-05
2	1	0	1	0	39.0761	-0.592424	-0.592208	0.113836	3	-0.00473868	39	4.7906	-6.74148e-05
2	1	0	1	0	39.2061	-0.579422	-0.57922	0.112258	3	-0.00472393	39	4.9206	-6.50219e-05
2	1	0	1	0	39.3361	-0.566421	-0.566205	0.110596	3	-0.00470938	39	5.0506	-6.26201e-05
2	1	0	1	0	39.4661	-0.553419	-0.553209	0.108697	3	-0.00469507	39	5.1806	-6.0132e-05
2	1	0	1	0	39.5961	-0.540418	-0.540206	0.106393	3	-0.00468103	39	5.3106	-5.74745e-05
2	1	0	1	0	39.7261	-0.527416	-0.527202	0.104023	3	-0.0046673	39	5.4406	-5.48413e-05
2	1	0	1	0	39.8561	-0.514415	-0.514196	0.101509	3	-0.0046539	39	5.5706	-5.21954e-05
2	1	0	1	0	39.9861	-0.501413	-0.501216	0.098873	3	-0.00464082	39	5.7006	-4.95568e-05
2	1	0	1	0	40.1161	-0.488412	-0.488211	0.096556	3	-0.00462806	39	5.8306	-4.71397e-05
2	1	0	1	0	40.2463	-0.47541	-0.47521	0.0944919	3	-0.00461556	39	5.9608	-4.49035e-05
2	1	0	1	0	40.3763	-0.462409	-0.462206	0.0926497	3	-0.00460336	39	6.0908	-4.28233e-05
2	1	0	1	0	40.5063	-0.449408	-0.449186	0.090696	3	-0.0045914	39	6.2208	-4.07394e-05
2	1	0	1	0	40.6363	-0.436406	-0.436199	0.0887795	3	-0.0045797	39	6.3508	-3.87256e-05
2	1	0	1	0	40.7663	-0.423405	-0.423209	0.0869629	3	-0.00456821	39	6.4808	-3.68035e-05
2	1	0	1	0	40.8963	-0.410403	-0.410212	0.0856243	3	-0.00455694	39	6.6108	-3.51241e-05
2	1	0	1	0	41.0263	-0.397402	-0.397188	0.0845641	3	-0.00454584	39	6.7408	-3.35879e-05
2	1	0	1	0	41.1563	-0.3844	-0.384212	0.083098	3	-0.0045349	39	6.8708	-3.19272e-05
2	1	0	1	0	41.2863	-0.371399	-0.371188	0.0820367	3	-0.00452412	39	7.0008	-3.0451e-05
2	1	0	1	0	41.4163	-0.358397	-0.358177	0.0810625	3	-0.00451346	39	7.1308	-2.90348e-05
2	1	0	1	0	41.5463	-0.345396	-0.345198	0.0802063	3	-0.00450293	39	7.2608	-2.76871e-05
2	1	0	1	0	41.6763	-0.332394	-0.332168	0.0794807	3	-0.0044925	39	7.3908	-2.6401e-05
2	1	0	1	0	41.8063	-0.319393	-0.319176	0.0787912	3	-0.00448217	39	7.5208	-2.51482e-05
2	1	0	1	0	41.9363	-0.306392	-0.306201	0.0781612	3	-0.00447192	39	7.6508	-2.39331e-05
2	1	0	1	0	42.0561	-0.305591	-0.305393	0.0657433	3	-0.00446305	39	7.7706	-2.00775e-05
2	1	0	1	0	42.1861	-0.318593	-0.318386	0.054188	3	-0.00445537	39	7.9006	-1.72527e-05
2	1	0	1	0	42.3161	-0.331594	-0.331401	0.0458909	3	-0.00444893	39	8.0306	-1.52083e-05
2	1	0	1	0	42.4461	-0.344596	-0.344405	0.0396782	3	-0.00444344	39	8.1606	-1.36654e-05
2	1	0	1	0	42.5761	-0.357597	-0.357398	0.0346522	3	-0.00443868	39	8.2906	-1.23846e-05
2	1	0	1	0	42.7061	-0.370599	-0.370385	0.0302976	3	-0.00443453	39	8.4206	-1.12218e-05
2	1	0	1	0	42.8361	-0.3836	-0.38341	0.0263711	3	-0.00443092	39	8.5506	-1.01109e-05
2	1	0	1	0	42.9661	-0.396602	-0.396389	0.0233136	3	-0.00442774	39	8.6806	-9.24126e-06
2	1	0	1	0	43.0961	-0.409603	-0.409405	0.0206078	3	-0.00442494	39	8.8106	-8.43692e-06
2	1	0	1	0	43.2261	-0.422605	-0.422401	0.0182175	3	-0.00442248	39	8.9406	-7.69508e-06
2	1	0	1	0	43.3561	-0.435606	-0.435407	0.0163073	3	-0.0044203	39	9.0706	-7.10032e-06
2	1	0	1	0	43.4861	-0.448607	-0.448382	0.0141784	3	-0.00441839	39	9.2006	-6.35732e-06
2	1	0	1	0	43.6161	-0.461609	-0.461398	0.0124244	3	-0.00441671	39	9.3306	-5.73259e-06
2	1	0	1	0	43.7461	-0.47461	-0.474415	0.0108744	3	-0.00441524	39	9.4606	-5.15898e-06
2	1	0	1	0	43.8763	-0.487612	-0.487388	0.00969732	3	-0.00441396	39	9.5908	-4.72636e-06
2	1	0	1	0	44.0063	-0.500613	-0.500422	0.00831943	3	-0.00441285	39	9.7208	-4.16322e-06
2	1	0	1	0	44.1363	-0.513615	-0.513412	0.00716996	3	-0.00441189	39	9.8508	-3.68114e-06
2	1	0	1	0	44.2663	-0.526616	-0.526415	0.00597161	3	-0.00441108	39	9.9808	-3.14355e-06
2	1	0	1	0	44.3963	-0.539618	-0.539421	0.0050856	3	-0.0044104	39	10.1108	-2.74328e-06
2	1	0	1	0	44.5263	-0.552619	-0.55243	0.00420491	3	-0.00440986	39	10.2408	-2.32291e-06
2	1	0	1	0	44.6563	-0.56562	-0.565421	0.00317123	3	-0.00440944	39	10.3708	-1.79308e-06
2	1	0	1	0	44.7863	-0.578622	-0.578443	0.00234258	3	-0.00440913	39	10.5008	-1.35505e-06
2	1	0	1	0	44.9163	-0.591623	-0.591438	0.00145126	3	-0.00440893	39	10.6308	-8.58332e-07
2	1	0	1	0	45.0463	-0.604625	-0.604447	0.000674677	3	-0.00440884	39	10.7608	-4.07806e-07
2	0	0	1	0	45.1763	-0.617626	-0.617457	3.40727e-05	3	-0.00440885	39	0.07	-2.10384e-08
2	0	0	1	0	45.3063	-0.630628	-0.630422	-0.00101129	3	-0.00440898	39	0.2	6.3754e-07
2	0	0	1	0	45.4363	-0.643629	-0.643426	-0.00187818	3	-0.00440921	39	0.33	1.20847e-06
2	0	0	1	0	45.5663	-0.656631	-0.656422	-0.00271107	3	-0.00440956	39	0.46	1.77961e-06
2	0	0	1	0	45.6965	-0.669632	-0.669448	-0.00348235	3	-0.00441001	39	0.5902	2.33125e-06
2	0	0	1	0	45.8265	-0.682634	-0.682434	-0.0045394	3	-0.0044106	39	0.7202	3.09784e-06
2	0	0	1	0	45.9565	-0.695635	-0.695431	-0.00583123	3	-0.00441133	39	0.8502	4.05522e-06
2	0	0	1	0	46.0865	-0.708637	-0.708454	-0.00715281	3	-0.00441221	39	0.9802	5.06744e-06
2	0	0	1	0	46.2165	-0.721638	-0.72143	-0.00838409	3	-0.00441326	39	1.1102	6.04853e-06
2	0	0	1	0	46.3465	-0.734639	-0.734465	-0.00971097	3	-0.00441449	39	1.2402	7.13237e-06
2	0	0	1	0	46.4765	-0.747641	-0.747451	-0.0114033	3	-0.00441592	39	1.3702	8.52343e-06
2	0	0	1	0	46.6065	-0.760642	-0.760465	-0.0133708	3	-0.00441758	39	1.5002	1.0168e-05
2	0	0	1	0	46.7365	-0.773644	-0.773444	-0.0156432	3	-0.0044195	39	1.6302	1.20991e-05
2	0	0	1	0	46.8665	-0.786645	-0.786439	-0.0185424	3	-0.00442176	39	1.7602	1.45825e-05
2	0	0	1	0	46.9965	-0.799647	-0.799466	-0.0219717	3	-0.00442443	39	1.8902	1.75656e-05
2	0	0	1	0	47.1265	-0.812648	-0.812469	-0.0260671	3	-0.00442761	39	2.0202	2.11787e-05
2	0	0	1	0	47.2565	-0.82565	-0.825471	-0.0311123	3	-0.00443138	39	2.1502	2.56823e-05
2	0	0	1	0	47.3866	-0.838644	-0.83847	-0.0366682	3	-0.00443584	39	2.2803	3.07452e-05
2	0	0	1	0	47.5167	-0.851652	-0.851487	-0.0424243	3	-0.00444102	39	2.4104	3.61237e-05
2	0	0	1	0	47.6467	-0.864654	-0.864469	-0.0475587	3	-0.00444693	39	2.5404	4.1113e-05
2	0	0	1	0	47.7767	-0.877655	-0.877458	-0.0521842	3	-0.00445349	39	2.6704	4.57894e-05
2	0	0	1	0	47.9067	-0.890657	-0.890486	-0.0556316	3	-0.00446057	39	2.8004	4.95391e-05
2	0	0	1	0	48.0367	-0.903658	-0.903466	-0.0577945	3	-0.004468	39	2.9304	5.22154e-05
2	0	0	1	0	48.1667	-0.91666	-0.916482	-0.0585934	3	-0.00447561	39	3.0604	5.36998e-05
2	0	0	1	0	48.2967	-0.929661	-0.929469	-0.0586391	3	-0.00448329	39	3.1904	5.45032e-05
2	0	0	1	0	48.4267	-0.942663	-0.942469	-0.0587655	3	-0.004491	39	3.3204	5.53847e-05
2	0	0	1	0	48.5567	-0.955664	-0.955463	-0.0596579	3	-0.00449875	39	3.4504	5.70009e-05
2	0	0	1	0	48.6867	-0.968665	-0.968464	-0.0612068	3	-0.00450663	39	3.5804	5.92766e-05
2	0	0	1	0	48.8167	-0.981667	-0.981466	-0.0637108	3	-0.00451479	39	3.7104	6.253e-05
2	0	0	1	0	48.9467	-0.994668	-0.994485	-0.0674907	3	-0.00452335	39	3.8404	6.71185e-05
2	0	0	1	0	49.0767	-1.00767	-1.00747	-0.0722809	3	-0.00453248	39	3.9704	7.28206e-05
2	0	0	1	0	49.2069	-1.02067	-1.02045	-0.0784692	3	-0.00454235	39	4.1006	8.00742e-05
2	0	0	1	0	49.3369	-1.03367	-1.03347	-0.0859089	3	-0.00455307	39	4.2306	8.87844e-05
2	0	0	1	0	49.4669	-1.04667	-1.04647	-0.0938872	3	-0.0045648	39	4.3606	9.82503e-05
2	0	0	1	0	49.5969	-1.05968	-1.05946	-0.101873	3	-0.00457759	39	4.4906	0.000107931
2	0	0	1	0	49.7269	-1.07268	-1.07249	-0.109643	3	-0.0045914	39	4.6206	0.000117592
2	0	0	1	0	49.8569	-1.08568	-1.08549	-0.11713	3	-0.00460619	39	4.7506	0.000127143
2	0	0	1	0	49.9869	-1.09868	-1.09848	-0.123883	3	-0.00462191	39	4.8806	0.000136083
2	0	0	1	0	50.1169	-1.11168	-1.1115	-0.130488	3	-0.00463849	39	5.0106	0.000145037
2	0	0	1	0	50.2469	-1.12468	-1.12448	-0.138277	3	-0.00465601	39	5.1406	0.000155489
2	0	0	1	0	50.3769	-1.13768	-1.13748	-0.14862	3	-0.00467469	39	5.2706	0.000169053
2	0	0	1	0	50.5069	-1.15069	-1.1505	-0.162234	3	-0.00469491	39	5.4006	0.000186651
2	0	0	1	0	50.6369	-1.16369	-1.16348	-0.179944	3	-0.00471716	39	5.5306	0.000209362
2	0	0	1	0	50.7669	-1.17669	-1.17646	-0.201968	3	-0.00474199	39	5.6606	0.000237608
2	0	0	1	0	50.8969	-1.18969	-1.1895	-0.228757	3	-0.00477	39	5.7906	0.000272106
2	0	0	1	0	51.0271	-1.20269	-1.20249	-0.26209	3	-0.00480195	39	5.9208	0.000315161
2	0	0	1	0	51.1571	-1.21569	-1.21548	-0.302592	3	-0.00483864	39	6.0508	0.000367795
2	0	0	1	0	51.2871	-1.22869	-1.22851	-0.34491	3	-0.00488079	39	6.1808	0.000423724
2	0	0	1	0	51.4171	-1.2417	-1.24148	-0.38664	3	-0.00492838	39	6.3108	0.000480008
2	0	0	1	0	51.5471	-1.2547	-1.25449	-0.430837	3	-0.00498153	39	6.4408	0.00054048
2	0	0	1	0	51.6771	-1.2677	-1.2675	-0.482726	3	-0.00504092	39	6.5708	0.000611853
2	0	0	1	0	51.8071	-1.2807	-1.2805	-0.542182	3	-0.00510753	39	6.7008	0.000694263
2	0	0	1	0	51.9371	-1.2937	-1.29348	-0.607596	3	-0.00518224	39	6.8308	0.000785916
2	0	0	1	0	52.0671	-1.3067	-1.30651	-0.680536	3	-0.00526598	39	6.9608	0.000889128
2	0	0	1	0	52.1971	-1.3197	-1.3195	-0.76393	3	-0.00535986	39	7.0908	0.00100801
2	0	0	1	0	52.3271	-1.33271	-1.33251	-0.857687	3	-0.0054653	39	7.2208	0.00114288
2	0	0	1	0	52.4571	-1.34571	-1.34551	-0.964349	3	-0.0055836	39	7.3508	0.00129754
2	0	0	1	1	52.5655	-1.34351	-1.3433	-0.948662	4	-0.00568964	39	7.4592	0.00127434
2	0	0	1	1	52.6955	-1.33051	-1.33029	-0.842388	4	-0.00580598	39	7.5892	0.00112062
2	0	0	1	1	52.8255	-1.3175	-1.31729	-0.741341	4	-0.00590878	39	7.7192	0.000976558
2	0	0	1	1	52.9555	-1.3045	-1.30431	-0.64904	4	-0.00599895	39	7.8492	0.000846548
2	0	0	1	1	53.0855	-1.2915	-1.29128	-0.565424	4	-0.00607775	39	7.9792	0.000730122
2	0	0	1	1	53.2155	-1.2785	-1.2783	-0.491756	4	-0.00614627	39	8.1092	0.000628609
2	0	0	1	1	53.3455	-1.2655	-1.2653	-0.426735	4	-0.00620587	39	8.2392	0.000539947
2	0	0	1	1	53.4755	-1.2525	-1.2523	-0.367933	4	-0.00625735	39	8.3692	0.000460764
2	0	0	1	1	53.6055	-1.2395	-1.2393	-0.316578	4	-0.00630172	39	8.4992	0.000392337
2	0	0	1	1	53.7355	-1.22649	-1.2263	-0.271228	4	-0.00633979	39	8.6292	0.000332607
2	0	0	1	1	53.8655	-1.21349	-1.2133	-0.231298	4	-0.00637236	39	8.7592	0.000280634
2	0	0	1	1	53.9955	-1.20049	-1.2003	-0.19584	4	-0.00640003	39	8.8892	0.000235067
2	0	0	1	1	54.1257	-1.18749	-1.18727	-0.164207	4	-0.00642337	39	9.0194	0.000194958
2	0	0	1	1	54.2557	-1.17449	-1.1743	-0.135911	4	-0.00644279	39	9.1494	0.0001596
2	0	0	1	1	54.3857	-1.16149	-1.16128	-0.110169	4	-0.00645869	39	9.2794	0.000127937
2	0	0	1	1	54.5157	-1.14849	-1.14828	-0.0868799	4	-0.00647142	39	9.4094	9.97627e-05
2	0	0	1	1	54.6457	-1.13548	-1.13529	-0.0665643	4	-0.00648134	39	9.5394	7.55697e-05
2	0	0	1	1	54.7757	-1.12248	-1.12229	-0.0488091	4	-0.00648877	39	9.6694	5.4778e-05
2	0	0	1	1	54.9057	-1.10948	-1.10926	-0.0331849	4	-0.006494	39	9.7994	3.68108e-05
2	0	0	1	1	55.0357	-1.09648	-1.09627	-0.019456	4	-0.00649734	39	9.9294	2.1329e-05
2	0	0	1	1	55.1657	-1.08348	-1.08328	-0.00783059	4	-0.00649906	39	10.0594	8.48272e-06
2	1	0	1	1	55.2957	-1.07048	-1.07028	0.0019357	4	-0.00649939	39	0.02	-2.07175e-06
2	1	0	1	1	55.4257	-1.05748	-1.05729	0.0101849	4	-0.00649853	39	0.15	-1.07684e-05
2	1	0	1	1	55.5557	-1.04447	-1.0443	0.0182026	4	-0.00649661	39	0.28	-1.90089e-05
2	1	0	1	1	55.6857	-1.03147	-1.03128	0.0260853	4	-0.00649368	39	0.41	-2.69012e-05
2	1	0	1	1	55.8157	-1.01847	-1.01826	0.0347701	4	-0.00648968	39	0.54	-3.54051e-05
2	1	0	1	1	55.9459	-1.00547	-1.00527	0.0409998	4	-0.00648464	39	0.6702	-4.12158e-05
2	1	0	1	1	56.0759	-0.992468	-0.992253	0.0432871	4	-0.00647912	39	0.8002	-4.29517e-05
2	1	0	1	1	56.2059	-0.979467	-0.979277	0.0476852	4	-0.00647316	39	0.9302	-4.66971e-05
2	1	0	1	1	56.3359	-0.966465	-0.96627	0.0550124	4	-0.00646646	39	1.0602	-5.31568e-05
2	1	0	1	1	56.4659	-0.953464	-0.953265	0.0663148	4	-0.00645858	39	1.1902	-6.32156e-05
2	1	0	1	1	56.5959	-0.940462	-0.940269	0.0820452	4	-0.00644895	39	1.3202	-7.71445e-05
2	1	0	1	1	56.7259	-0.927461	-0.927256	0.102669	4	-0.00643694	39	1.4502	-9.52003e-05
2	1	0	1	1	56.8559	-0.914459	-0.914271	0.127339	4	-0.00642197	39	1.5802	-0.000116422
2	1	0	1	1	56.9859	-0.901458	-0.901274	0.155577	4	-0.00640354	39	1.7102	-0.000140217
2	1	0	1	1	57.1159	-0.888457	-0.888265	0.185362	4	-0.00638135	39	1.8402	-0.000164651
2	1	0	1	1	57.2459	-0.875455	-0.875272	0.214511	4	-0.00635528	39	1.9702	-0.000187756
2	1	0	1	1	57.3759	-0.862454	-0.862249	0.239722	4	-0.00632564	39	2.1002	-0.0002067
2	1	0	1	1	57.5059	-0.849452	-0.849263	0.25816	4	-0.00629312	39	2.2302	-0.000219246
2	1	0	1	1	57.6361	-0.836451	-0.836263	0.266819	4	-0.00625878	39	2.3604	-0.000223131
2	1	0	1	1	57.7661	-0.823449	-0.82327	0.265127	4	-0.00622405	39	2.4904	-0.000218271
2	1	0	1	1	57.8961	-0.810448	-0.810234	0.254788	4	-0.00619014	39	2.6204	-0.000206438
2	1	0	1	1	58.0261	-0.797446	-0.797243	0.239446	4	-0.00615792	39	2.7504	-0.000190896
2	1	0	1	1	58.1561	-0.784445	-0.784237	0.222562	4	-0.00612783	39	2.8804	-0.000174541
2	1	0	1	1	58.2861	-0.771443	-0.771214	0.205782	4	-0.00609993	39	3.0104	-0.000158702
2	1	0	1	1	58.4161	-0.758442	-0.758233	0.190241	4	-0.00607416	39	3.1404	-0.000144247
2	1	0	1	1	58.5461	-0.745441	-0.745238	0.175468	4	-0.00605037	39	3.2704	-0.000130766
2	1	0	1	1	58.6761	-0.732439	-0.73222	0.162205	4	-0.00602838	39	3.4004	-0.00011877
2	1	0	1	1	58.8061	-0.719438	-0.719241	0.150508	4	-0.00600801	39	3.5304	-0.000108252
2	1	0	1	1	58.9361	-0.706436	-0.706243	0.140205	4	-0.00598907	39	3.6604	-9.9019e-05
2	1	0	1	1	59.0661	-0.693435	-0.693239	0.13134	4	-0.0059714	39	3.7904	-9.10499e-05
2	1	0	1	1	59.1961	-0.680433	-0.680239	0.123541	4	-0.0059548	39	3.9204	-8.40375e-05
2	1	0	1	1	59.3261	-0.667432	-0.667239	0.117054	4	-0.00593913	39	4.0504	-7.81031e-05
2	1	0	1	1	59.4563	-0.65443	-0.654233	0.111637	4	-0.00592419	39	4.1806	-7.30368e-05
2	1	0	1	1	59.5863	-0.641429	-0.641224	0.107453	4	-0.00590991	39	4.3106	-6.89012e-05
2	1	0	1	1	59.7163	-0.628428	-0.628216	0.103916	4	-0.00589614	39	4.4406	-6.52818e-05
2	1	0	1	1	59.8463	-0.615426	-0.615214	0.100814	4	-0.00588279	39	4.5706	-6.20221e-05
2	1	0	1	1	59.9763	-0.602425	-0.602216	0.0981867	4	-0.0058698	39	4.7006	-5.91297e-05
2	1	0	1	1	60.1063	-0.589423	-0.589209	0.0959813	4	-0.00585711	39	4.8306	-5.65531e-05
2	1	0	1	1	60.2363	-0.576422	-0.576204	0.0940138	4	-0.0058447	39	4.9606	-5.41711e-05
2	1	0	1	1	60.3663	-0.56342	-0.563225	0.0919921	4	-0.00583257	39	5.0906	-5.18123e-05
2	1	0	1	1	60.4963	-0.550419	-0.550184	0.0896719	4	-0.00582071	39	5.2206	-4.9336e-05
2	1	0	1	1	60.6263	-0.537417	-0.537206	0.0874473	4	-0.00580914	39	5.3506	-4.69772e-05
2	1	0	1	1	60.7563	-0.524416	-0.524203	0.0853045	4	-0.00579785	39	5.4806	-4.47169e-05
2	1	0	1	1	60.8863	-0.511414	-0.511216	0.0831278	4	-0.00578685	39	5.6106	-4.24962e-05
2	1	0	1	1	61.0163	-0.498413	-0.498207	0.081258	4	-0.00577613	39	5.7406	-4.04833e-05
2	1	0	1	1	61.1463	-0.485412	-0.485214	0.0791567	4	-0.00576566	39	5.8706	-3.84079e-05
2	1	0	1	1	61.2765	-0.47241	-0.472184	0.0773719	4	-0.00575541	39	6.0008	-3.65338e-05
2	1	0	1	1	61.4065	-0.459409	-0.459219	0.0757486	4	-0.00574539	39	6.1308	-3.47852e-05
2	1	0	1	1	61.5365	-0.446407	-0.446186	0.0744355	4	-0.00573558	39	6.2608	-3.32121e-05
2	1	0	1	1	61.6665	-0.433406	-0.433192	0.0732223	4	-0.00572594	39	6.3908	-3.17193e-05
2	1	0	1	1	61.7965	-0.420404	-0.420194	0.0718933	4	-0.00571646	39	6.5208	-3.02091e-05
2	1	0	1	1	61.9265	-0.407403	-0.407206	0.0708033	4	-0.00570713	39	6.6508	-2.88315e-05
2	1	0	1	1	62.0565	-0.394401	-0.394182	0.0698142	4	-0.00569793	39	6.7808	-2.75195e-05
2	1	0	1	1	62.1865	-0.3814	-0.381218	0.0691322	4	-0.00568885	39	6.9108	-2.63544e-05
2	1	0	1	1	62.3165	-0.368398	-0.368185	0.0684119	4	-0.00567988	39	7.0408	-2.51882e-05
2	1	0	1	1	62.4465	-0.355397	-0.355192	0.0676013	4	-0.005671	39	7.1708	-2.40115e-05
2	1	0	1	1	62.5765	-0.342396	-0.342194	0.0668439	4	-0.0056622	39	7.3008	-2.28736e-05
2	1	0	1	1	62.7065	-0.329394	-0.329196	0.0664806	4	-0.00565348	39	7.4308	-2.18851e-05
2	1	0	1	1	62.8365	-0.316393	-0.316177	0.0660418	4	-0.00564483	39	7.5608	-2.08809e-05
2	1	0	1	1	62.9665	-0.303391	-0.303198	0.0656795	4	-0.00563623	39	7.6908	-1.99139e-05
2	1	0	1	1	63.0863	-0.308592	-0.308401	0.0517743	4	-0.00562921	39	7.8106	-1.59673e-05
2	1	0	1	1	63.2163	-0.321593	-0.321381	0.0434528	4	-0.00562312	39	7.9406	-1.39649e-05
2	1	0	1	1	63.3463	-0.334595	-0.334397	0.0371222	4	-0.00561797	39	8.0706	-1.24136e-05
2	1	0	1	1	63.4763	-0.347596	-0.34742	0.0323256	4	-0.00561351	39	8.2006	-1.12306e-05
2	1	0	1	1	63.6063	-0.360598	-0.360381	0.0283981	4	-0.00560961	39	8.3306	-1.02341e-05
2	1	0	1	1	63.7363	-0.373599	-0.373407	0.0252237	4	-0.00560619	39	8.4606	-9.41871e-06
2	1	0	1	1	63.8663	-0.386601	-0.386393	0.0222576	4	-0.00560316	39	8.5906	-8.60018e-06
2	1	0	1	1	63.9963	-0.399602	-0.399393	0.0197377	4	-0.00560048	39	8.7206	-7.88309e-06
2	1	0	1	1	64.1263	-0.412603	-0.412405	0.01763	4	-0.0055981	39	8.8506	-7.27068e-06
2	1	0	1	1	64.2563	-0.425605	-0.425421	0.0156997	4	-0.00559599	39	8.9806	-6.67896e-06
2	1	0	1	1	64.3863	-0.438606	-0.438386	0.0139117	4	-0.00559412	39	9.1106	-6.0987e-06
2	1	0	1	1	64.5163	-0.451608	-0.451422	0.0123213	4	-0.00559247	39	9.2406	-5.56212e-06
2	1	0	1	1	64.6463	-0.464609	-0.464417	0.0108011	4	-0.00559103	39	9.3706	-5.01621e-06
2	1	0	1	1	64.7763	-0.477611	-0.477399	0.00948909	4	-0.00558976	39	9.5006	-4.53008e-06
2	1	0	1	1	64.9065	-0.490612	-0.490417	0.00827056	4	-0.00558864	39	9.6308	-4.05602e-06
2	1	0	1	1	65.0365	-0.503614	-0.503411	0.00722839	4	-0.00558768	39	9.7608	-3.63885e-06
2	1	0	1	1	65.1665	-0.516615	-0.516396	0.0060736	4	-0.00558687	39	9.8908	-3.13638e-06
2	1	0	1	1	65.2965	-0.529616	-0.529399	0.0050941	4	-0.0055862	39	10.0208	-2.69681e-06
2	1	0	1	1	65.4265	-0.542618	-0.542417	0.00390426	4	-0.00558566	39	10.1508	-2.11774e-06
2	1	0	1	1	65.5565	-0.555619	-0.555397	0.00317654	4	-0.00558524	39	10.2808	-1.76424e-06
2	1	0	1	1	65.6865	-0.568621	-0.568408	0.00234896	4	-0.00558493	39	10.4108	-1.33517e-06
2	1	0	1	1	65.8165	-0.581622	-0.581422	0.00147357	4	-0.00558474	39	10.5408	-8.56767e-07
2	1	0	1	1	65.9465	-0.594624	-0.594423	0.000480265	4	-0.00558466	39	10.6708	-2.8548e-07
2	1	0	1	1	66.0765	-0.607625	-0.607422	-0.000296322	4	-0.00558468	39	0.08	1.79993e-07
2	0	0	1	1	66.2065	-0.620627	-0.620426	-0.000920991	4	-0.00558481	39	0.21	5.71407e-07
2	0	0	1	1	66.3365	-0.633628	-0.633419	-0.001807	4	-0.00558505	39	0.34	1.14459e-06
2	0	0	1	1	66.4665	-0.64663	-0.646443	-0.00274082	4	-0.0055854	39	0.47	1.77178e-06
2	0	0	1	1	66.5966	-0.659624	-0.659437	-0.00359708	4	-0.00558586	39	0.6001	2.37205e-06
2	0	0	1	1	66.7267	-0.672633	-0.672433	-0.00472212	4	-0.00558645	39	0.7302	3.17531e-06
2	0	0	1	1	66.8567	-0.685634	-0.685438	-0.00565488	4	-0.00558717	39	0.8602	3.87607e-06
2	0	0	1	1	66.9867	-0.698635	-0.698443	-0.00670874	4	-0.00558804	39	0.9902	4.68567e-06
2	0	0	1	1	67.1167	-0.711637	-0.711442	-0.00820136	4	-0.00558907	39	1.1202	5.83479e-06
2	0	0	1	1	67.2467	-0.724638	-0.724438	-0.0096313	4	-0.00559028	39	1.2502	6.97728e-06
2	0	0	1	1	67.3767	-0.73764	-0.737447	-0.0112206	4	-0.00559168	39	1.3802	8.27459e-06
2	0	0	1	1	67.5067	-0.750641	-0.750453	-0.0129459	4	-0.00559329	39	1.5102	9.71526e-06
2	0	0	1	1	67.6367	-0.763643	-0.763442	-0.0148857	4	-0.00559515	39	1.6402	1.13644e-05
2	0	0	1	1	67.7667	-0.776644	-0.776439	-0.0173016	4	-0.0055973	39	1.7702	1.34336e-05
2	0	0	1	1	67.8967	-0.789645	-0.789456	-0.0207117	4	-0.00559981	39	1.9002	1.6351e-05
2	0	0	1	1	68.0267	-0.802647	-0.802454	-0.0243121	4	-0.00560276	39	2.0302	1.95093e-05
2	0	0	1	1	68.1567	-0.815648	-0.815466	-0.0285552	4	-0.00560625	39	2.1602	2.32858e-05
2	0	0	1	1	68.2867	-0.82865	-0.828456	-0.0336959	4	-0.00561035	39	2.2902	2.79156e-05
2	0	0	1	1	68.4169	-0.841651	-0.841469	-0.0392276	4	-0.00561515	39	2.4204	3.30088e-05
2	0	0	1	1	68.5469	-0.854653	-0.854457	-0.0450579	4	-0.00562068	39	2.5504	3.85e-05
2	0	0	1	1	68.6769	-0.867654	-0.867478	-0.0500818	4	-0.00562691	39	2.6804	4.34448e-05
2	0	0	1	1	68.8069	-0.880656	-0.880482	-0.0541379	4	-0.00563375	39	2.8104	4.76674e-05
2	0	0	1	1	68.9369	-0.893657	-0.893479	-0.0569691	4	-0.00564105	39	2.9404	5.09007e-05
2	0	0	1	1	69.0669	-0.906659	-0.906479	-0.0584298	4	-0.00564861	39	3.0704	5.29654e-05
2	0	0	1	1	69.1969	-0.91966	-0.919466	-0.0588611	4	-0.00565629	39	3.2004	5.41208e-05
2	0	0	1	1	69.3269	-0.932661	-0.932465	-0.0586264	4	-0.00566397	39	3.3304	5.4667e-05
2	0	0	1	1	69.4569	-0.945663	-0.945482	-0.0582673	4	-0.00567163	39	3.4604	5.50907e-05
2	0	0	1	1	69.5869	-0.958664	-0.958468	-0.0584925	4	-0.00567928	39	3.5904	5.60632e-05
2	0	0	1	1	69.7169	-0.971666	-0.971491	-0.05954	4	-0.00568702	39	3.7204	5.78426e-05
2	0	0	1	1	69.8469	-0.984667	-0.984483	-0.0614108	4	-0.00569492	39	3.8504	6.04579e-05
2	0	0	1	1	69.9769	-0.997669	-0.997471	-0.0638723	4	-0.00570312	39	3.9804	6.37108e-05
2	0	0	1	1	70.1069	-1.01067	-1.01047	-0.0673622	4	-0.0057117	39	4.1104	6.80677e-05
2	0	0	1	1	70.2371	-1.02367	-1.02346	-0.0714629	4	-0.0057208	39	4.2406	7.31397e-05
2	0	0	1	1	70.3671	-1.03667	-1.03648	-0.0764932	4	-0.00573048	39	4.3706	7.92839e-05
2	0	0	1	1	70.4971	-1.04967	-1.04949	-0.0815033	4	-0.00574079	39	4.5006	8.55367e-05
2	0	0	1	1	70.6271	-1.06268	-1.06249	-0.0866472	4	-0.00575176	39	4.6306	9.20615e-05
2	0	0	1	1	70.7571	-1.07568	-1.07548	-0.0920015	4	-0.00576342	39	4.7606	9.89462e-05
2	0	0	1	1	70.8871	-1.08868	-1.08849	-0.097734	4	-0.00577582	39	4.8906	0.000106382
2	0	0	1	1	71.0171	-1.10168	-1.10149	-0.10327	4	-0.00578893	39	5.0206	0.000113751
2	0	0	1	1	71.1471	-1.11468	-1.11448	-0.109955	4	-0.00580282	39	5.1506	0.000122543
2	0	0	1	1	71.2771	-1.12768	-1.12749	-0.118703	4	-0.0058177	39	5.2806	0.000133836
2	0	0	1	1	71.4071	-1.14068	-1.14048	-0.13038	4	-0.00583391	39	5.4106	0.000148696
2	0	0	1	1	71.5371	-1.15369	-1.15349	-0.146113	4	-0.0058519	39	5.5406	0.00016854
2	0	0	1	1	71.6671	-1.16669	-1.16649	-0.166041	4	-0.0058722	39	5.6706	0.000193685
2	0	0	1	1	71.7971	-1.17969	-1.17949	-0.190166	4	-0.00589534	39	5.8006	0.000224299
2	0	0	1	1	71.9271	-1.19269	-1.1925	-0.21923	4	-0.00592194	39	5.9306	0.000261433
2	0	0	1	1	72.0573	-1.20569	-1.2055	-0.253288	4	-0.00595272	39	6.0608	0.000305339
2	0	0	1	1	72.1873	-1.21869	-1.21851	-0.285865	4	-0.00598793	39	6.1908	0.000348327
2	0	0	1	1	72.3173	-1.2317	-1.23151	-0.31281	4	-0.00602693	39	6.3208	0.000385228
2	0	0	1	1	72.4473	-1.2447	-1.2445	-0.341125	4	-0.00606945	39	6.4508	0.000424531
2	0	0	1	1	72.5773	-1.2577	-1.25751	-0.37454	4	-0.00611596	39	6.5808	0.000470989
2	0	0	1	1	72.7073	-1.2707	-1.27052	-0.414633	4	-0.00616725	39	6.7108	0.000526799
2	0	0	1	1	72.8373	-1.2837	-1.28351	-0.462947	4	-0.00622428	39	6.8408	0.000594198
2	0	0	1	1	72.9673	-1.2967	-1.29653	-0.519765	4	-0.00628814	39	6.9708	0.000673889
2	0	0	1	1	73.0973	-1.3097	-1.3095	-0.584421	4	-0.00635982	39	7.1008	0.000765301
2	0	0	1	1	73.2273	-1.32271	-1.32251	-0.65612	4	-0.0064404	39	7.2308	0.000867728
2	0	0	1	1	73.3573	-1.33571	-1.33551	-0.738471	4	-0.00653097	39	7.3608	0.000986239
2	0	0	1	1	73.4873	-1.34871	-1.3485	-0.832343	4	-0.00663305	39	7.4908	0.00112242
2	0	0	0	1	73.5	-1.35006	-1.34982	-0.843608	4	-0.00664368	39	7.5035	0.00113872