File: Fig 2/Fig 2_np-Fe3O4_5mvs.mpt
mode	ox/red	error	control changes	counter inc.	time/s	control/V	Ewe/V	<I>/mA	cycle number	(Q-Qo)/C	I Range	step time/s	P/W
2	1	0	0	0	0.000000000000000E+000	-0.299982	-0.299752	0.157877	1	0.0000000E+000	39	0.000000000000000E+000	-4.73239e-05
2	1	0	1	0	2.1102	-0.310533	-0.310294	0.00444614	1	2.24061e-05	39	2.0001	-1.37961e-06
2	1	0	0	0	4.3104	-0.321534	-0.321301	0.00306576	1	3.02278e-05	39	4.2003	-9.85033e-07
2	1	0	1	0	6.5106	-0.332535	-0.332307	0.00244374	1	3.60008e-05	39	6.4005	-8.12071e-07
2	1	0	0	0	8.7108	-0.343536	-0.343301	0.00200099	1	4.06589e-05	39	8.6007	-6.86942e-07
2	1	0	1	0	10.911	-0.354537	-0.354312	0.00175886	1	4.452e-05	39	10.8009	-6.23185e-07
2	1	0	0	0	13.1112	-0.365538	-0.36531	0.00150889	1	4.78622e-05	39	13.0011	-5.51212e-07
2	1	0	1	0	15.3114	-0.376539	-0.376291	0.00138711	1	5.08567e-05	39	15.2013	-5.21956e-07
2	1	0	0	0	17.5116	-0.38754	-0.387315	0.0012774	1	5.34878e-05	39	17.4015	-4.94757e-07
2	1	0	1	0	19.7118	-0.398541	-0.398307	0.00116779	1	5.58774e-05	39	19.6017	-4.6514e-07
2	1	0	0	0	21.912	-0.409542	-0.409303	0.00106564	1	5.8046e-05	39	21.8019	-4.3617e-07
2	1	0	1	0	24.1122	-0.420543	-0.420302	0.000951018	1	5.99429e-05	39	24.0021	-3.99715e-07
2	1	0	0	0	26.3124	-0.431544	-0.431297	0.000868578	1	6.16474e-05	39	26.2023	-3.74615e-07
2	1	0	1	0	28.5126	-0.442544	-0.442306	0.000762671	1	6.31643e-05	39	28.4025	-3.37334e-07
2	1	0	0	0	30.7128	-0.453545	-0.453343	0.000745433	1	6.44972e-05	39	30.6027	-3.37937e-07
2	1	0	1	0	32.913	-0.464546	-0.464343	0.000623917	1	6.56363e-05	39	32.8029	-2.89711e-07
2	1	0	0	0	35.1132	-0.475547	-0.475337	0.000565252	1	6.66158e-05	39	35.0031	-2.68685e-07
2	0	0	1	0	37.3134	-0.486548	-0.48631	0.000469547	1	6.74691e-05	39	37.2033	-2.28345e-07
2	1	0	0	0	39.5136	-0.497549	-0.497344	0.000444473	1	6.82331e-05	39	39.4035	-2.21056e-07
2	1	0	1	0	41.7138	-0.50855	-0.50835	0.000380184	1	6.88643e-05	39	41.6037	-1.93266e-07
2	1	0	0	0	43.914	-0.519551	-0.519325	0.000401634	1	6.94607e-05	39	43.8039	-2.08579e-07
2	1	0	1	0	46.1142	-0.530552	-0.530345	0.000292236	1	6.9904e-05	39	46.0041	-1.54986e-07
2	1	0	0	0	48.3144	-0.541553	-0.541317	0.000221553	1	7.02077e-05	39	48.2043	-1.19931e-07
2	0	0	1	0	50.5146	-0.552554	-0.552324	0.000218053	1	7.03302e-05	39	50.4045	-1.20436e-07
2	1	0	0	0	52.7148	-0.563555	-0.563332	9.05282e-05	1	7.03232e-05	39	1.2002	-5.09974e-08
2	0	0	1	0	54.915	-0.574556	-0.57434	-3.21208e-05	1	7.01456e-05	39	3.4004	1.84483e-08
2	1	0	0	0	57.1152	-0.585557	-0.585345	-0.000100329	1	6.98016e-05	39	5.6006	5.87269e-08
2	0	0	1	0	59.3153	-0.596558	-0.596361	-8.74596e-05	1	6.93491e-05	39	7.8007	5.21575e-08
2	1	0	1	0	61.5155	-0.607559	-0.607332	-0.000143984	1	6.88008e-05	39	10.0009	8.74459e-08
2	0	0	1	0	63.7157	-0.61856	-0.618349	-0.000262713	1	6.80494e-05	39	12.2011	1.62448e-07
2	0	0	1	0	65.9158	-0.629561	-0.629363	-0.000263239	1	6.7209e-05	39	14.4012	1.65673e-07
2	0	0	0	0	68.116	-0.640562	-0.640373	-0.000372492	1	6.62344e-05	39	16.6014	2.38534e-07
2	1	0	1	0	70.3162	-0.651563	-0.651333	-0.000380832	1	6.5062e-05	39	18.8016	2.48049e-07
2	0	0	0	0	72.5164	-0.662564	-0.662351	-0.000403843	1	6.36759e-05	39	21.0018	2.67486e-07
2	1	0	1	0	74.7166	-0.673565	-0.673341	-0.000620906	1	6.21428e-05	39	23.202	4.18082e-07
2	0	0	0	0	76.9168	-0.684566	-0.684336	-0.000604064	1	6.03831e-05	39	25.4022	4.13383e-07
2	0	0	1	0	79.117	-0.695567	-0.695344	-0.000697721	1	5.84758e-05	39	27.6024	4.85156e-07
2	0	0	0	0	81.3172	-0.706568	-0.706334	-0.000930581	1	5.62696e-05	39	29.8026	6.57301e-07
2	0	0	1	0	83.5174	-0.717569	-0.717348	-0.000920174	1	5.38248e-05	39	32.0028	6.60085e-07
2	0	0	0	0	85.7176	-0.72857	-0.728333	-0.00115179	1	5.10418e-05	39	34.203	8.38885e-07
2	0	0	1	0	87.9178	-0.739571	-0.739345	-0.00129365	1	4.79494e-05	39	36.4032	9.5645e-07
2	0	0	0	0	90.118	-0.750572	-0.750324	-0.0015423	1	4.44171e-05	39	38.6034	1.15723e-06
2	0	0	1	0	92.3182	-0.761573	-0.761322	-0.00175138	1	4.04062e-05	39	40.8036	1.33336e-06
2	0	0	0	0	94.5184	-0.772574	-0.772342	-0.00202076	1	3.58525e-05	39	43.0038	1.56072e-06
2	0	0	1	0	96.7186	-0.783575	-0.783339	-0.00218112	1	3.06993e-05	39	45.204	1.70856e-06
2	0	0	0	0	98.9188	-0.794576	-0.794353	-0.00256748	1	2.48933e-05	39	47.4042	2.03949e-06
2	0	0	1	0	101.119	-0.805576	-0.805332	-0.00287689	1	1.83587e-05	39	49.6044	2.31685e-06
2	0	0	0	0	103.319	-0.816577	-0.816342	-0.00330012	1	1.10552e-05	39	51.8046	2.69402e-06
2	0	0	1	0	105.519	-0.827578	-0.827389	-0.00367172	1	2.82278e-06	39	54.0048	3.03794e-06
2	0	0	0	0	107.72	-0.838579	-0.83838	-0.00420176	1	-6.36004e-06	39	56.205	3.52267e-06
2	0	0	1	0	109.92	-0.84958	-0.849367	-0.00476385	1	-1.67646e-05	39	58.4052	4.04626e-06
2	0	0	0	0	112.12	-0.860581	-0.860361	-0.00551194	1	-2.86659e-05	39	60.6054	4.74226e-06
2	0	0	1	0	114.32	-0.871582	-0.871393	-0.006459	1	-4.23956e-05	39	62.8056	5.62832e-06
2	0	0	0	0	116.52	-0.882583	-0.882348	-0.00751341	1	-5.83354e-05	39	65.0058	6.62944e-06
2	0	0	1	0	118.721	-0.893584	-0.89336	-0.00854495	1	-7.66677e-05	39	67.206	7.63371e-06
2	0	0	0	0	120.921	-0.904585	-0.904373	-0.00941566	1	-9.71512e-05	39	69.4062	8.51526e-06
2	0	0	1	0	123.121	-0.915586	-0.915372	-0.00983515	1	-0.000119127	39	71.6064	9.00282e-06
2	0	0	0	0	125.321	-0.926587	-0.926382	-0.00979255	1	-0.000141452	39	73.8066	9.07163e-06
2	0	0	1	0	127.521	-0.937588	-0.937405	-0.0094586	1	-0.00016318	39	76.0067	8.86654e-06
2	0	0	1	0	129.721	-0.948589	-0.948393	-0.00914059	1	-0.000184159	39	78.2069	8.66887e-06
2	0	0	1	0	131.922	-0.959591	-0.95939	-0.00914031	1	-0.000204768	39	80.4071	8.76913e-06
2	0	0	1	0	134.122	-0.970591	-0.970389	-0.00927871	1	-0.000225511	39	82.6073	9.00396e-06
2	0	0	0	0	136.322	-0.981592	-0.981383	-0.00960979	1	-0.000246758	39	84.8074	9.43089e-06
2	0	0	1	0	138.522	-0.992593	-0.992403	-0.0101556	1	-0.000269112	39	87.0076	1.00785e-05
2	0	0	0	0	140.722	-1.00359	-1.00337	-0.0108656	1	-0.000292735	39	89.2078	1.09022e-05
2	0	0	1	0	142.923	-1.01459	-1.01437	-0.0116727	1	-0.000318106	39	91.408	1.18404e-05
2	0	0	0	0	145.123	-1.0256	-1.02534	-0.0128354	1	-0.000345716	39	93.6082	1.31607e-05
2	0	0	1	0	147.323	-1.0366	-1.03638	-0.0140688	1	-0.000375951	39	95.8084	1.45807e-05
2	0	0	0	0	149.523	-1.0476	-1.04739	-0.0153502	1	-0.000409066	39	98.0086	1.60776e-05
2	0	0	1	0	151.723	-1.0586	-1.05839	-0.016455	1	-0.000444879	39	100.209	1.74158e-05
2	0	0	0	0	153.924	-1.0696	-1.06938	-0.0173336	1	-0.000482864	39	102.409	1.85363e-05
2	0	0	1	0	156.124	-1.0806	-1.08039	-0.017277	1	-0.000521843	39	104.609	1.8666e-05
2	0	0	0	0	158.324	-1.0916	-1.09139	-0.0158066	1	-0.000559146	39	106.809	1.72511e-05
2	0	0	1	0	160.524	-1.1026	-1.10238	-0.0136055	1	-0.000592124	39	109.01	1.49985e-05
2	0	0	0	0	162.724	-1.1136	-1.11337	-0.0115068	1	-0.00062026	39	111.21	1.28113e-05
2	0	0	1	0	164.925	-1.1246	-1.12436	-0.011385	1	-0.000645206	39	113.41	1.28008e-05
2	0	0	0	0	167.125	-1.13561	-1.13537	-0.0247412	1	-0.000682408	39	115.61	2.80904e-05
2	0	0	1	0	169.325	-1.14661	-1.1464	-0.0373979	1	-0.000755069	39	117.81	4.28728e-05
2	0	0	0	0	171.525	-1.15761	-1.15737	-0.0361066	1	-0.000837499	39	120.011	4.17888e-05
2	0	0	1	0	173.725	-1.16861	-1.16839	-0.0339039	1	-0.000914825	39	122.211	3.9613e-05
2	0	0	0	0	175.926	-1.17961	-1.17935	-0.0333503	1	-0.000989091	39	124.411	3.93318e-05
2	0	0	1	0	178.126	-1.19061	-1.1904	-0.0341078	1	-0.00106349	39	126.611	4.06018e-05
2	0	0	0	0	180.326	-1.20161	-1.20138	-0.0364873	1	-0.00114133	39	128.811	4.3835e-05
2	0	0	1	0	182.526	-1.21261	-1.21238	-0.0398465	1	-0.00122561	39	131.012	4.8309e-05
2	0	0	0	0	184.726	-1.22361	-1.22337	-0.0444498	1	-0.00131858	39	133.212	5.43783e-05
2	0	0	1	0	186.927	-1.23461	-1.23436	-0.0521999	1	-0.0014248	39	135.412	6.44334e-05
2	0	0	0	0	189.127	-1.24562	-1.24538	-0.0645316	1	-0.00155265	39	137.612	8.03662e-05
2	0	0	1	0	191.327	-1.25662	-1.2564	-0.0835389	1	-0.00171507	39	139.812	0.000104958
2	0	0	0	0	193.527	-1.26762	-1.26736	-0.111548	1	-0.00192887	39	142.013	0.000141372
2	0	0	1	0	195.727	-1.27862	-1.27839	-0.151277	1	-0.00221646	39	144.213	0.000193391
2	0	0	1	0	197.927	-1.28962	-1.28936	-0.206965	1	-0.002608	39	146.413	0.000266853
2	0	0	0	0	200.128	-1.30062	-1.30039	-0.29079	1	-0.00314999	39	148.613	0.000378142
2	0	0	1	0	202.328	-1.31162	-1.31137	-0.449758	1	-0.00394003	39	150.813	0.000589798
2	0	0	0	0	204.528	-1.32262	-1.3224	-0.847848	1	-0.00530319	39	153.013	0.0011212
2	0	0	1	0	206.728	-1.33362	-1.33339	-1.7122	1	-0.00803756	39	155.214	0.00228304
2	0	0	0	0	208.928	-1.34462	-1.3444	-2.85771	1	-0.0130432	39	157.414	0.00384189
2	0	0	0	1	210.909	-1.34542	-1.34519	-3.27859	2	-0.0195059	39	159.395	0.00441031
2	0	0	1	1	213.109	-1.33442	-1.33421	-2.68933	2	-0.0260613	39	161.595	0.00358812
2	0	0	0	1	215.31	-1.32342	-1.32319	-2.10445	2	-0.0313108	39	163.795	0.00278458
2	0	0	1	1	217.51	-1.31242	-1.31218	-1.62045	2	-0.0353909	39	165.995	0.00212632
2	0	0	1	1	219.71	-1.30142	-1.30117	-1.23076	2	-0.0385067	39	168.195	0.00160143
2	0	0	1	1	221.91	-1.29042	-1.29017	-0.938141	2	-0.040873	39	170.395	0.00121036
2	0	0	1	1	224.11	-1.27942	-1.27917	-0.72524	2	-0.042687	39	172.596	0.000927705
2	0	0	0	1	226.31	-1.26842	-1.26817	-0.574893	2	-0.0441062	39	174.796	0.000729063
2	0	0	1	1	228.511	-1.25742	-1.25718	-0.470248	2	-0.0452478	39	176.996	0.000591187
2	0	0	0	1	230.711	-1.24642	-1.24615	-0.395316	2	-0.0461937	39	179.196	0.000492622
2	0	0	1	1	232.911	-1.23541	-1.23516	-0.341428	2	-0.0469999	39	181.396	0.000421718
2	0	0	0	1	235.111	-1.22441	-1.22417	-0.300612	2	-0.0477031	39	183.597	0.000368001
2	0	0	1	1	237.311	-1.21341	-1.21319	-0.267878	2	-0.0483262	39	185.797	0.000324986
2	0	0	0	1	239.512	-1.20241	-1.20216	-0.239765	2	-0.0488833	39	187.997	0.000288237
2	0	0	1	1	241.712	-1.19141	-1.19115	-0.212299	2	-0.0493795	39	190.197	0.000252879
2	0	0	0	1	243.912	-1.18041	-1.18015	-0.184389	2	-0.0498151	39	192.397	0.000217607
2	0	0	1	1	246.112	-1.16941	-1.16916	-0.155366	2	-0.0501878	39	194.598	0.000181647
2	0	0	0	1	248.312	-1.15841	-1.15815	-0.126799	2	-0.0504967	39	196.798	0.000146853
2	0	0	1	1	250.513	-1.14741	-1.14717	-0.101326	2	-0.0507454	39	198.998	0.000116238
2	0	0	0	1	252.713	-1.13641	-1.13616	-0.0804892	2	-0.0509434	39	201.198	9.14487e-05
2	0	0	1	1	254.913	-1.1254	-1.12518	-0.0642288	2	-0.0511006	39	203.398	7.2269e-05
2	0	0	0	1	257.113	-1.1144	-1.11416	-0.0518545	2	-0.0512266	39	205.599	5.77741e-05
2	0	0	1	1	259.313	-1.1034	-1.10316	-0.0423971	2	-0.0513287	39	207.799	4.6771e-05
2	0	0	0	1	261.514	-1.0924	-1.09218	-0.0350313	2	-0.0514124	39	209.999	3.82604e-05
2	0	0	1	1	263.714	-1.0814	-1.08117	-0.0287118	2	-0.0514812	39	212.199	3.10422e-05
2	0	0	0	1	265.914	-1.0704	-1.07015	-0.0226915	2	-0.0515366	39	214.399	2.42834e-05
2	0	0	1	1	268.114	-1.0594	-1.05917	-0.0159415	2	-0.0515778	39	216.6	1.68847e-05
2	0	0	0	1	270.314	-1.0484	-1.04819	-0.00796652	2	-0.0516025	39	218.8	8.35042e-06
2	0	0	1	1	272.515	-1.0374	-1.03715	-0.000275934	2	-0.0516097	39	0.000000000000000E+000	2.86184e-07
2	1	0	0	1	274.715	-1.0264	-1.02614	0.00579464	2	-0.0516011	39	2.2002	-5.94608e-06
2	1	0	1	1	276.915	-1.01539	-1.01516	0.00919535	2	-0.051583	39	4.4004	-9.33473e-06
2	1	0	0	1	279.115	-1.00439	-1.00416	0.0136414	2	-0.0515568	39	6.6006	-1.36981e-05
2	1	0	1	1	281.315	-0.993393	-0.993168	0.0190248	2	-0.0515199	39	8.8008	-1.88948e-05
2	1	0	0	1	283.516	-0.982392	-0.982156	0.0253475	2	-0.0514703	39	11.001	-2.48952e-05
2	1	0	1	1	285.716	-0.971391	-0.97116	0.0324928	2	-0.0514058	39	13.2011	-3.15557e-05
2	1	0	1	1	287.916	-0.96039	-0.960152	0.038203	2	-0.0513264	39	15.4013	-3.66807e-05
2	1	0	1	1	290.116	-0.949389	-0.949164	0.0418794	2	-0.0512374	39	17.6015	-3.97504e-05
2	1	0	1	1	292.316	-0.938388	-0.938157	0.0478597	2	-0.0511382	39	19.8016	-4.48999e-05
2	1	0	0	1	294.516	-0.927387	-0.927146	0.0559818	2	-0.0510231	39	22.0018	-5.19032e-05
2	1	0	1	1	296.717	-0.916386	-0.916149	0.0644113	2	-0.0508895	39	24.202	-5.90104e-05
2	1	0	0	1	298.917	-0.905385	-0.905138	0.0712386	2	-0.0507384	39	26.4022	-6.44808e-05
2	1	0	1	1	301.117	-0.894384	-0.89416	0.0716134	2	-0.0505784	39	28.6024	-6.40338e-05
2	1	0	0	1	303.317	-0.883383	-0.883163	0.0639529	2	-0.050427	39	30.8026	-5.64808e-05
2	1	0	1	1	305.517	-0.872382	-0.872168	0.054298	2	-0.050296	39	33.0028	-4.73569e-05
2	1	0	0	1	307.718	-0.861381	-0.861143	0.0461199	2	-0.0501847	39	35.203	-3.97158e-05
2	1	0	1	1	309.918	-0.85038	-0.850153	0.0390521	2	-0.0500901	39	37.4032	-3.32003e-05
2	1	0	0	1	312.118	-0.839379	-0.839141	0.033366	2	-0.0500097	39	39.6034	-2.79988e-05
2	1	0	1	1	314.318	-0.828378	-0.828145	0.0286498	2	-0.0499408	39	41.8036	-2.37262e-05
2	1	0	0	1	316.518	-0.817378	-0.817135	0.0247096	2	-0.0498814	39	44.0038	-2.01911e-05
2	1	0	1	1	318.719	-0.806377	-0.806127	0.0213887	2	-0.0498301	39	46.204	-1.7242e-05
2	1	0	0	1	320.919	-0.795376	-0.795183	0.0186933	2	-0.0497854	39	48.4042	-1.48646e-05
2	1	0	1	1	323.119	-0.784375	-0.784128	0.0164663	2	-0.0497463	39	50.6044	-1.29117e-05
2	1	0	0	1	325.319	-0.773374	-0.773154	0.0145783	2	-0.0497117	39	52.8046	-1.12713e-05
2	1	0	1	1	327.519	-0.762373	-0.762142	0.0130716	2	-0.049681	39	55.0048	-9.9624e-06
2	1	0	0	1	329.72	-0.751372	-0.75113	0.0117617	2	-0.0496532	39	57.205	-8.83454e-06
2	1	0	1	1	331.92	-0.740371	-0.74015	0.0107795	2	-0.049628	39	59.4052	-7.97843e-06
2	1	0	0	1	334.12	-0.72937	-0.729141	0.00990497	2	-0.0496049	39	61.6054	-7.22212e-06
2	1	0	1	1	336.32	-0.718369	-0.718135	0.00924087	2	-0.0495834	39	63.8056	-6.63619e-06
2	1	0	0	1	338.52	-0.707368	-0.707142	0.0087345	2	-0.0495632	39	66.0058	-6.17653e-06
2	1	0	1	1	340.721	-0.696367	-0.696142	0.0082774	2	-0.0495441	39	68.206	-5.76225e-06
2	1	0	0	1	342.921	-0.685366	-0.685126	0.00788101	2	-0.0495259	39	70.4062	-5.39948e-06
2	1	0	1	1	345.121	-0.674365	-0.674106	0.00758739	2	-0.0495085	39	72.6064	-5.11471e-06
2	1	0	0	1	347.321	-0.663364	-0.663141	0.00732117	2	-0.0494917	39	74.8066	-4.85497e-06
2	1	0	1	1	349.521	-0.652363	-0.652145	0.00703036	2	-0.0494755	39	77.0068	-4.58481e-06
2	1	0	0	1	351.722	-0.641362	-0.641133	0.00684827	2	-0.0494598	39	79.207	-4.39065e-06
2	1	0	1	1	353.922	-0.630361	-0.630142	0.00659407	2	-0.0494447	39	81.4072	-4.1552e-06
2	1	0	1	1	356.122	-0.61936	-0.619136	0.00648387	2	-0.04943	39	83.6073	-4.0144e-06
2	1	0	1	1	358.322	-0.608359	-0.608118	0.006297	2	-0.0494156	39	85.8075	-3.82932e-06
2	1	0	1	1	360.522	-0.597358	-0.597104	0.0061836	2	-0.0494015	39	88.0076	-3.69225e-06
2	1	0	0	1	362.722	-0.586357	-0.586115	0.00597415	2	-0.0493877	39	90.2078	-3.50154e-06
2	1	0	1	1	364.923	-0.575356	-0.575124	0.0059278	2	-0.0493743	39	92.408	-3.40922e-06
2	1	0	0	1	367.123	-0.564355	-0.564089	0.00586147	2	-0.049361	39	94.6082	-3.30639e-06
2	1	0	1	1	369.323	-0.553354	-0.553127	0.00570042	2	-0.049348	39	96.8084	-3.15306e-06
2	1	0	0	1	371.523	-0.542353	-0.542102	0.00559506	2	-0.0493353	39	99.0086	-3.03309e-06
2	1	0	1	1	373.723	-0.531352	-0.531111	0.00547854	2	-0.0493227	39	101.209	-2.90971e-06
2	1	0	0	1	375.924	-0.520351	-0.520087	0.00542909	2	-0.0493103	39	103.409	-2.8236e-06
2	1	0	1	1	378.124	-0.50935	-0.509103	0.00537673	2	-0.0492981	39	105.609	-2.73731e-06
2	1	0	0	1	380.324	-0.498349	-0.498114	0.00531882	2	-0.049286	39	107.809	-2.64938e-06
2	1	0	1	1	382.524	-0.487348	-0.487132	0.00532738	2	-0.0492739	39	110.01	-2.59514e-06
2	1	0	0	1	384.724	-0.476347	-0.476162	0.00527819	2	-0.0492619	39	112.21	-2.51327e-06
2	1	0	1	1	386.925	-0.465347	-0.465115	0.00525595	2	-0.04925	39	114.41	-2.44462e-06
2	1	0	0	1	389.125	-0.454346	-0.454097	0.00522296	2	-0.0492381	39	116.61	-2.37173e-06
2	1	0	1	1	391.325	-0.443345	-0.443098	0.00519878	2	-0.0492263	39	118.81	-2.30357e-06
2	1	0	0	1	393.525	-0.432344	-0.4321	0.00526751	2	-0.0492145	39	121.011	-2.27609e-06
2	1	0	1	1	395.725	-0.421343	-0.421117	0.005205	2	-0.0492027	39	123.211	-2.19192e-06
2	1	0	0	1	397.926	-0.410342	-0.410115	0.00521898	2	-0.049191	39	125.411	-2.14038e-06
2	1	0	1	1	400.126	-0.399341	-0.399109	0.00517481	2	-0.0491792	39	127.611	-2.06532e-06
2	1	0	0	1	402.326	-0.38834	-0.388117	0.00517218	2	-0.0491674	39	129.811	-2.00741e-06
2	1	0	1	1	404.526	-0.377339	-0.377117	0.00525772	2	-0.0491557	39	132.012	-1.98277e-06
2	1	0	0	1	406.726	-0.366338	-0.366107	0.00523465	2	-0.0491439	39	134.212	-1.91644e-06
2	1	0	1	1	408.927	-0.355337	-0.355098	0.00521827	2	-0.0491322	39	136.412	-1.853e-06
2	1	0	0	1	411.127	-0.344336	-0.344096	0.00531186	2	-0.0491203	39	138.612	-1.82779e-06
2	1	0	1	1	413.327	-0.333335	-0.333113	0.00530978	2	-0.0491085	39	140.812	-1.76876e-06
2	1	0	0	1	415.527	-0.322334	-0.322087	0.00536495	2	-0.0490964	39	143.013	-1.72798e-06
2	1	0	1	1	417.727	-0.311333	-0.311124	0.00545454	2	-0.0490843	39	145.213	-1.69704e-06
2	1	0	0	1	419.908	-0.300432	-0.300216	0.00548957	2	-0.0490722	39	147.393	-1.64806e-06
2	1	0	1	1	421.908	-0.309533	-0.30928	0.00475266	2	-0.0490623	39	149.394	-1.4699e-06
2	1	0	0	1	424.108	-0.320534	-0.320272	0.00427034	2	-0.0490526	39	151.594	-1.36767e-06
2	1	0	1	1	426.309	-0.331535	-0.331273	0.0038337	2	-0.049044	39	153.794	-1.27e-06
2	1	0	0	1	428.509	-0.342536	-0.342299	0.00350566	2	-0.0490362	39	155.994	-1.19998e-06
2	1	0	1	1	430.709	-0.353537	-0.353339	0.00326555	2	-0.049029	39	158.194	-1.15385e-06
2	1	0	0	1	432.909	-0.364538	-0.364322	0.00304302	2	-0.0490224	39	160.395	-1.10864e-06
2	1	0	1	1	435.109	-0.375539	-0.375306	0.00290278	2	-0.0490161	39	162.595	-1.08943e-06
2	1	0	0	1	437.31	-0.38654	-0.386304	0.00270855	2	-0.0490102	39	164.795	-1.04633e-06
2	1	0	1	1	439.51	-0.397541	-0.397295	0.00264363	2	-0.0490046	39	166.995	-1.0503e-06
2	1	0	0	1	441.71	-0.408542	-0.408291	0.00254223	2	-0.0489992	39	169.195	-1.03797e-06
2	1	0	1	1	443.91	-0.419542	-0.419315	0.00244443	2	-0.048994	39	171.396	-1.02499e-06
2	1	0	0	1	446.11	-0.430543	-0.430307	0.00242886	2	-0.048989	39	173.596	-1.04515e-06
2	1	0	1	1	448.311	-0.441544	-0.441299	0.00224282	2	-0.0489843	39	175.796	-9.89754e-07
2	1	0	0	1	450.511	-0.452545	-0.452297	0.00220939	2	-0.0489796	39	177.996	-9.993e-07
2	1	0	1	1	452.711	-0.463546	-0.463317	0.00212779	2	-0.0489753	39	180.196	-9.85839e-07
2	1	0	0	1	454.911	-0.474547	-0.474313	0.00199059	2	-0.0489711	39	182.397	-9.44165e-07
2	1	0	1	1	457.111	-0.485548	-0.485307	0.00193617	2	-0.048967	39	184.597	-9.39636e-07
2	1	0	0	1	459.312	-0.496549	-0.496308	0.00188574	2	-0.0489632	39	186.797	-9.35905e-07
2	1	0	1	1	461.512	-0.50755	-0.507303	0.00178613	2	-0.0489594	39	188.997	-9.06106e-07
2	1	0	0	1	463.712	-0.518551	-0.518302	0.00178571	2	-0.0489557	39	191.197	-9.2554e-07
2	1	0	1	1	465.912	-0.529552	-0.52932	0.00174782	2	-0.048952	39	193.398	-9.25159e-07
2	1	0	0	1	468.112	-0.540553	-0.54032	0.00175257	2	-0.0489484	39	195.598	-9.46946e-07
2	1	0	1	1	470.312	-0.551554	-0.551287	0.00169598	2	-0.048945	39	197.798	-9.34973e-07
2	1	0	1	1	472.513	-0.562555	-0.56231	0.00164071	2	-0.0489416	39	199.998	-9.22588e-07
2	1	0	1	1	474.713	-0.573556	-0.573295	0.00162052	2	-0.0489383	39	202.198	-9.29039e-07
2	1	0	1	1	476.913	-0.584557	-0.584319	0.00153187	2	-0.0489353	39	204.398	-8.951e-07
2	1	0	0	1	479.113	-0.595558	-0.595321	0.00149718	2	-0.0489323	39	206.599	-8.91305e-07
2	1	0	1	1	481.313	-0.606559	-0.606347	0.00144456	2	-0.0489294	39	208.799	-8.75906e-07
2	1	0	0	1	483.514	-0.61756	-0.617315	0.00147768	2	-0.0489266	39	210.999	-9.12191e-07
2	1	0	1	1	485.714	-0.628561	-0.628313	0.00142831	2	-0.0489238	39	213.199	-8.97427e-07
2	1	0	0	1	487.914	-0.639562	-0.639313	0.00139303	2	-0.0489211	39	215.399	-8.9058e-07
2	1	0	1	1	490.114	-0.650563	-0.650313	0.00139485	2	-0.0489185	39	217.6	-9.07092e-07
2	1	0	0	1	492.314	-0.661564	-0.661346	0.00134616	2	-0.0489159	39	219.8	-8.90277e-07
2	1	0	1	1	494.515	-0.672565	-0.672343	0.00134923	2	-0.0489134	39	222	-9.07146e-07
2	1	0	0	1	496.715	-0.683566	-0.683323	0.00134114	2	-0.0489109	39	224.2	-9.16433e-07
2	1	0	1	1	498.915	-0.694567	-0.694325	0.00128536	2	-0.0489086	39	226.4	-8.92455e-07
2	1	0	0	1	501.115	-0.705568	-0.705335	0.00131638	2	-0.0489063	39	228.601	-9.28486e-07
2	1	0	1	1	503.315	-0.716569	-0.71631	0.0011627	2	-0.048904	39	230.801	-8.3285e-07
2	1	0	0	1	505.516	-0.72757	-0.727299	0.00125596	2	-0.0489018	39	233.001	-9.13457e-07
2	1	0	1	1	507.716	-0.738571	-0.738327	0.00120984	2	-0.0488995	39	235.201	-8.93254e-07
2	1	0	0	1	509.916	-0.749571	-0.749343	0.0013554	2	-0.0488973	39	237.401	-1.01566e-06
2	1	0	1	1	512.116	-0.760572	-0.760334	0.00125921	2	-0.048895	39	239.602	-9.57419e-07
2	1	0	0	1	514.316	-0.771573	-0.771342	0.0011872	2	-0.0488927	39	241.802	-9.15739e-07
2	1	0	1	1	516.517	-0.782575	-0.782336	0.0012863	2	-0.0488904	39	244.002	-1.00632e-06
2	1	0	0	1	518.717	-0.793575	-0.793351	0.00123652	2	-0.048888	39	246.202	-9.80995e-07
2	1	0	1	1	520.917	-0.804576	-0.804332	0.00129436	2	-0.0488857	39	248.402	-1.0411e-06
2	1	0	0	1	523.117	-0.815577	-0.815329	0.00127968	2	-0.0488834	39	250.603	-1.04336e-06
2	1	0	1	1	525.317	-0.826578	-0.826358	0.00126335	2	-0.048881	39	252.803	-1.04398e-06
2	1	0	0	1	527.518	-0.837579	-0.837386	0.00129736	2	-0.0488788	39	255.003	-1.08639e-06
2	1	0	1	1	529.718	-0.84858	-0.848359	0.00127567	2	-0.0488766	39	257.203	-1.08223e-06
2	1	0	0	1	531.918	-0.859581	-0.859346	0.00126969	2	-0.0488743	39	259.403	-1.0911e-06
2	0	0	1	1	534.118	-0.870582	-0.870362	0.00129935	2	-0.048872	39	261.604	-1.13091e-06
2	1	0	0	1	536.318	-0.881583	-0.881338	0.00132665	2	-0.0488697	39	263.804	-1.16923e-06
2	1	0	1	1	538.519	-0.892584	-0.892347	0.00144502	2	-0.0488671	39	266.004	-1.28946e-06
2	1	0	1	1	540.719	-0.903585	-0.903331	0.00146669	2	-0.0488644	39	268.204	-1.32491e-06
2	1	0	1	1	542.919	-0.914587	-0.914341	0.00149291	2	-0.0488617	39	270.404	-1.36503e-06
2	1	0	1	1	545.119	-0.925587	-0.925345	0.00147956	2	-0.0488589	39	272.604	-1.3691e-06
2	1	0	0	1	547.319	-0.936588	-0.936341	0.00106161	2	-0.0488566	39	274.805	-9.94033e-07
2	0	0	1	1	549.519	-0.947589	-0.947326	0.00065058	2	-0.0488552	39	277.005	-6.16312e-07
2	1	0	0	1	551.72	-0.95859	-0.958341	0.000276768	2	-0.0488546	39	279.205	-2.65239e-07
2	0	0	1	1	553.92	-0.969591	-0.969372	-0.000376408	2	-0.0488554	39	2.0002	3.64879e-07
2	0	0	0	1	556.12	-0.980592	-0.980361	-0.00107783	2	-0.0488575	39	4.2004	1.05666e-06
2	0	0	1	1	558.32	-0.991593	-0.991369	-0.00174696	2	-0.0488611	39	6.4006	1.73188e-06
2	0	0	0	1	560.52	-1.00259	-1.00236	-0.00285001	2	-0.0488667	39	8.6008	2.85675e-06
2	0	0	1	1	562.721	-1.01359	-1.01337	-0.0038073	2	-0.0488746	39	10.801	3.85822e-06
2	0	0	0	1	564.921	-1.0246	-1.02436	-0.00456186	2	-0.0488845	39	13.0012	4.67298e-06
2	0	0	1	1	567.121	-1.0356	-1.03537	-0.00541407	2	-0.0488961	39	15.2014	5.60555e-06
2	0	0	0	1	569.321	-1.0466	-1.04638	-0.0071539	2	-0.0489101	39	17.4016	7.48568e-06
2	0	0	1	1	571.521	-1.0576	-1.05736	-0.0123128	2	-0.0489313	39	19.6018	1.30191e-05
2	0	0	0	1	573.722	-1.0686	-1.06836	-0.0184623	2	-0.0489664	39	21.802	1.97244e-05
2	0	0	1	1	575.922	-1.0796	-1.07936	-0.0200473	2	-0.0490097	39	24.0022	2.16383e-05
2	0	0	0	1	578.122	-1.0906	-1.09039	-0.0212105	2	-0.0490559	39	26.2024	2.31278e-05
2	0	0	1	1	580.322	-1.1016	-1.10138	-0.0205602	2	-0.0491028	39	28.4026	2.26445e-05
2	0	0	0	1	582.522	-1.1126	-1.11238	-0.019134	2	-0.0491469	39	30.6028	2.12842e-05
2	0	0	1	1	584.723	-1.1236	-1.12336	-0.0181841	2	-0.0491885	39	32.803	2.04273e-05
2	0	0	0	1	586.923	-1.13461	-1.13435	-0.0177548	2	-0.0492286	39	35.0032	2.01401e-05
2	0	0	1	1	589.123	-1.14561	-1.14536	-0.0176432	2	-0.0492679	39	37.2034	2.02078e-05
2	0	0	0	1	591.323	-1.15661	-1.15635	-0.0182988	2	-0.0493079	39	39.4036	2.11598e-05
2	0	0	1	1	593.523	-1.16761	-1.16738	-0.0193467	2	-0.04935	39	41.6038	2.25849e-05
2	0	0	0	1	595.724	-1.17861	-1.17838	-0.0204531	2	-0.0493944	39	43.804	2.41014e-05
2	0	0	1	1	597.924	-1.18961	-1.18936	-0.0220702	2	-0.0494417	39	46.0042	2.62494e-05
2	0	0	0	1	600.124	-1.20061	-1.20039	-0.0248277	2	-0.0494938	39	48.2044	2.98028e-05
2	0	0	1	1	602.324	-1.21161	-1.21136	-0.0290648	2	-0.0495533	39	50.4046	3.5208e-05
2	0	0	0	1	604.524	-1.22261	-1.22239	-0.0354711	2	-0.0496246	39	52.6048	4.33596e-05
2	0	0	1	1	606.724	-1.23361	-1.2333	-0.0448197	2	-0.0497132	39	54.8049	5.52763e-05
2	0	0	1	1	608.925	-1.24462	-1.24436	-0.0570943	2	-0.0498256	39	57.0051	7.10458e-05
2	0	0	1	1	611.125	-1.25562	-1.25536	-0.0722764	2	-0.0499679	39	59.2052	9.07329e-05
2	0	0	1	1	613.325	-1.26662	-1.26637	-0.0917955	2	-0.0501484	39	61.4054	0.000116247
2	0	0	0	1	615.525	-1.27762	-1.27738	-0.116927	2	-0.0503779	39	63.6056	0.000149359
2	0	0	1	1	617.725	-1.28862	-1.28837	-0.148902	2	-0.05067	39	65.8058	0.000191841
2	0	0	0	1	619.926	-1.29962	-1.29937	-0.190108	2	-0.0510419	39	68.006	0.000247021
2	0	0	1	1	622.126	-1.31062	-1.31036	-0.24232	2	-0.0515168	39	70.2062	0.000317526
2	0	0	0	1	624.326	-1.32162	-1.3214	-0.310593	2	-0.0521231	39	72.4064	0.000410417
2	0	0	1	1	626.526	-1.33262	-1.33236	-0.412252	2	-0.0529102	39	74.6066	0.000549269
2	0	0	0	1	628.726	-1.34362	-1.34337	-0.613827	2	-0.0540117	39	76.8068	0.000824594
2	0	0	0	0	630.707	-1.34642	-1.34619	-0.852822	3	-0.0555356	39	78.7876	0.00114806
2	0	0	1	0	632.907	-1.33542	-1.33517	-0.730092	3	-0.0572921	39	80.9878	0.000974797
2	0	0	1	0	635.108	-1.32442	-1.32421	-0.576323	3	-0.0587245	39	83.188	0.00076317
2	0	0	1	0	637.308	-1.31342	-1.31316	-0.451821	3	-0.0598484	39	85.3881	0.000593315
2	0	0	1	0	639.508	-1.30242	-1.30218	-0.358158	3	-0.0607324	39	87.5883	0.000466386
2	0	0	0	0	641.708	-1.29142	-1.29118	-0.289954	3	-0.0614408	39	89.7884	0.000374383
2	0	0	1	0	643.908	-1.28042	-1.28016	-0.241726	3	-0.0620224	39	91.9886	0.000309448
2	0	0	0	0	646.108	-1.26942	-1.26917	-0.205135	3	-0.0625111	39	94.1888	0.000260351
2	0	0	1	0	648.309	-1.25842	-1.25815	-0.178572	3	-0.0629314	39	96.389	0.00022467
2	0	0	0	0	650.509	-1.24742	-1.24718	-0.157705	3	-0.0632995	39	98.5892	0.000196686
2	0	0	1	0	652.709	-1.23641	-1.23614	-0.140378	3	-0.0636261	39	100.789	0.000173527
2	0	0	0	0	654.909	-1.22541	-1.22516	-0.12569	3	-0.0639178	39	102.99	0.000153991
2	0	0	1	0	657.109	-1.21441	-1.21416	-0.112786	3	-0.0641794	39	105.19	0.00013694
2	0	0	0	0	659.31	-1.20341	-1.20315	-0.10051	3	-0.0644133	39	107.39	0.000120928
2	0	0	1	0	661.51	-1.19241	-1.19216	-0.0880281	3	-0.0646201	39	109.59	0.000104944
2	0	0	0	0	663.71	-1.18141	-1.18116	-0.0759631	3	-0.0647999	39	111.79	8.97243e-05
2	0	0	1	0	665.91	-1.17041	-1.17013	-0.0637299	3	-0.0649529	39	113.991	7.45721e-05
2	0	0	0	0	668.11	-1.15941	-1.15916	-0.0520636	3	-0.0650795	39	116.191	6.03502e-05
2	0	0	1	0	670.311	-1.14841	-1.14815	-0.0416221	3	-0.0651816	39	118.391	4.77885e-05
2	0	0	0	0	672.511	-1.13741	-1.13715	-0.0330707	3	-0.0652627	39	120.591	3.76065e-05
2	0	0	1	0	674.711	-1.1264	-1.12616	-0.026382	3	-0.0653271	39	122.791	2.97103e-05
2	0	0	0	0	676.911	-1.1154	-1.11516	-0.0213383	3	-0.0653786	39	124.992	2.37956e-05
2	0	0	1	0	679.111	-1.1044	-1.10416	-0.017572	3	-0.0654206	39	127.192	1.94023e-05
2	0	0	0	0	681.312	-1.0934	-1.09315	-0.0147073	3	-0.0654555	39	129.392	1.60774e-05
2	0	0	1	0	683.512	-1.0824	-1.08215	-0.0122745	3	-0.0654845	39	131.592	1.32828e-05
2	0	0	0	0	685.712	-1.0714	-1.07117	-0.00973332	3	-0.0655081	39	133.792	1.0426e-05
2	0	0	1	0	687.912	-1.0604	-1.06013	-0.00672346	3	-0.0655256	39	135.993	7.12777e-06
2	0	0	0	0	690.112	-1.0494	-1.04915	-0.00351483	3	-0.0655361	39	138.193	3.6876e-06
2	0	0	1	0	692.313	-1.0384	-1.03819	-0.00121358	3	-0.0655405	39	140.393	1.25993e-06
2	1	0	0	0	694.513	-1.0274	-1.02717	0.000865006	3	-0.06554	39	1.2002	-8.88507e-07
2	1	0	1	0	696.713	-1.01639	-1.01615	0.00261094	3	-0.0655356	39	3.4004	-2.65311e-06
2	1	0	1	0	698.913	-1.00539	-1.00512	0.00537197	3	-0.0655262	39	5.6006	-5.39947e-06
2	1	0	1	0	701.113	-0.994393	-0.994163	0.00922674	3	-0.0655095	39	7.8007	-9.17289e-06
2	1	0	1	0	703.313	-0.983392	-0.983164	0.0135804	3	-0.0654839	39	10.0009	-1.33517e-05
2	1	0	1	0	705.514	-0.972391	-0.972145	0.0183248	3	-0.0654483	39	12.201	-1.78144e-05
2	1	0	1	0	707.714	-0.96139	-0.961162	0.0229422	3	-0.0654021	39	14.4012	-2.20512e-05
2	1	0	0	0	709.914	-0.950389	-0.950155	0.0252636	3	-0.0653479	39	16.6014	-2.40043e-05
2	1	0	1	0	712.114	-0.939388	-0.939139	0.0256322	3	-0.0652912	39	18.8016	-2.40722e-05
2	1	0	0	0	714.314	-0.928387	-0.92815	0.0269932	3	-0.065233	39	21.0018	-2.50537e-05
2	1	0	1	0	716.515	-0.917386	-0.917143	0.029179	3	-0.0651708	39	23.202	-2.67613e-05
2	1	0	0	0	718.715	-0.906385	-0.906124	0.0316626	3	-0.0651031	39	25.4022	-2.86902e-05
2	1	0	1	0	720.915	-0.895384	-0.895173	0.0334092	3	-0.0650305	39	27.6024	-2.9907e-05
2	1	0	0	0	723.115	-0.884383	-0.884143	0.0330459	3	-0.0649563	39	29.8026	-2.92173e-05
2	1	0	1	0	725.315	-0.873382	-0.873148	0.0306737	3	-0.0648853	39	32.0028	-2.67827e-05
2	1	0	0	0	727.516	-0.862381	-0.862163	0.0274592	3	-0.0648205	39	34.203	-2.36743e-05
2	1	0	1	0	729.716	-0.85138	-0.851114	0.0235009	3	-0.0647637	39	36.4032	-2.00019e-05
2	1	0	0	0	731.916	-0.84038	-0.840131	0.0194634	3	-0.0647157	39	38.6034	-1.63518e-05
2	1	0	1	0	734.116	-0.829379	-0.829116	0.0159325	3	-0.0646762	39	40.8036	-1.32099e-05
2	1	0	0	0	736.316	-0.818378	-0.818128	0.0129755	3	-0.064644	39	43.0038	-1.06157e-05
2	1	0	1	0	738.517	-0.807377	-0.807122	0.010591	3	-0.0646177	39	45.204	-8.54821e-06
2	1	0	0	0	740.717	-0.796376	-0.796131	0.00873843	3	-0.064596	39	47.4042	-6.95693e-06
2	1	0	1	0	742.917	-0.785375	-0.785121	0.00735142	3	-0.0645779	39	49.6044	-5.77175e-06
2	1	0	0	0	745.117	-0.774374	-0.774109	0.0062548	3	-0.0645625	39	51.8046	-4.8419e-06
2	1	0	1	0	747.317	-0.763373	-0.763088	0.00538948	3	-0.0645492	39	54.0048	-4.11265e-06
2	1	0	0	0	749.518	-0.752372	-0.752128	0.00470237	3	-0.0645377	39	56.205	-3.53678e-06
2	1	0	1	0	751.718	-0.741371	-0.741134	0.00426774	3	-0.0645275	39	58.4052	-3.16296e-06
2	1	0	0	0	753.918	-0.73037	-0.730141	0.00384702	3	-0.0645183	39	60.6054	-2.80886e-06
2	1	0	1	0	756.118	-0.719369	-0.719132	0.00347561	3	-0.0645099	39	62.8056	-2.49942e-06
2	1	0	0	0	758.318	-0.708368	-0.708115	0.0032188	3	-0.0645021	39	65.0058	-2.27928e-06
2	1	0	1	0	760.519	-0.697367	-0.697116	0.00298489	3	-0.0644949	39	67.206	-2.08082e-06
2	1	0	0	0	762.719	-0.686366	-0.686141	0.00276335	3	-0.0644882	39	69.4062	-1.89605e-06
2	1	0	1	0	764.919	-0.675365	-0.675121	0.00263729	3	-0.0644819	39	71.6064	-1.78049e-06
2	1	0	0	0	767.119	-0.664364	-0.664115	0.00249817	3	-0.0644759	39	73.8066	-1.65907e-06
2	1	0	1	0	769.319	-0.653363	-0.653127	0.00240939	3	-0.0644702	39	76.0068	-1.57364e-06
2	1	0	1	0	771.519	-0.642362	-0.642114	0.00229951	3	-0.0644647	39	78.2069	-1.47655e-06
2	1	0	1	0	773.72	-0.631361	-0.631133	0.00221487	3	-0.0644594	39	80.4071	-1.39788e-06
2	1	0	1	0	775.92	-0.62036	-0.620115	0.00207692	3	-0.0644545	39	82.6072	-1.28793e-06
2	1	0	0	0	778.12	-0.609359	-0.609096	0.00195031	3	-0.0644496	39	84.8074	-1.18793e-06
2	1	0	1	0	780.32	-0.598358	-0.598111	0.00193172	3	-0.0644449	39	87.0076	-1.15538e-06
2	1	0	0	0	782.52	-0.587357	-0.587118	0.00178426	3	-0.0644404	39	89.2078	-1.04757e-06
2	1	0	1	0	784.721	-0.576356	-0.576128	0.00186645	3	-0.0644359	39	91.408	-1.07532e-06
2	1	0	0	0	786.921	-0.565355	-0.565098	0.00183152	3	-0.0644316	39	93.6082	-1.03499e-06
2	1	0	1	0	789.121	-0.554354	-0.554123	0.00173844	3	-0.0644273	39	95.8084	-9.63311e-07
2	1	0	0	0	791.321	-0.543353	-0.543113	0.00169176	3	-0.0644231	39	98.0086	-9.18817e-07
2	1	0	1	0	793.521	-0.532352	-0.532135	0.00169437	3	-0.064419	39	100.209	-9.01632e-07
2	1	0	0	0	795.722	-0.521351	-0.52111	0.00160966	3	-0.064415	39	102.409	-8.38808e-07
2	1	0	1	0	797.922	-0.51035	-0.5101	0.001606	3	-0.064411	39	104.609	-8.1922e-07
2	1	0	0	0	800.122	-0.49935	-0.499107	0.0016318	3	-0.0644071	39	106.809	-8.14442e-07
2	1	0	1	0	802.322	-0.488349	-0.488102	0.00162675	3	-0.0644032	39	109.01	-7.9402e-07
2	1	0	0	0	804.522	-0.477348	-0.477112	0.00156313	3	-0.0643995	39	111.21	-7.45786e-07
2	1	0	1	0	806.723	-0.466347	-0.466106	0.00157822	3	-0.0643957	39	113.41	-7.35617e-07
2	1	0	0	0	808.923	-0.455346	-0.455116	0.00161587	3	-0.0643919	39	115.61	-7.3541e-07
2	1	0	1	0	811.123	-0.444345	-0.444094	0.00155616	3	-0.0643881	39	117.81	-6.91083e-07
2	0	0	0	0	813.323	-0.433344	-0.43312	0.00165672	3	-0.0643842	39	120.011	-7.1756e-07
2	0	0	1	0	815.523	-0.422343	-0.422103	0.00168764	3	-0.0643803	39	122.211	-7.12357e-07
2	1	0	0	0	817.724	-0.411342	-0.411098	0.00162542	3	-0.0643763	39	124.411	-6.68208e-07
2	1	0	1	0	819.924	-0.400341	-0.400096	0.0016507	3	-0.0643724	39	126.611	-6.60439e-07
2	1	0	0	0	822.124	-0.38934	-0.389103	0.00167983	3	-0.0643684	39	128.811	-6.53628e-07
2	1	0	1	0	824.324	-0.378339	-0.378116	0.0017908	3	-0.0643644	39	131.012	-6.7713e-07
2	1	0	0	0	826.524	-0.367338	-0.367114	0.00181522	3	-0.0643602	39	133.212	-6.66392e-07
2	1	0	1	0	828.725	-0.356337	-0.356088	0.00183428	3	-0.064356	39	135.412	-6.53166e-07
2	1	0	0	0	830.925	-0.345336	-0.345107	0.00180409	3	-0.0643517	39	137.612	-6.22605e-07
2	1	0	1	0	833.125	-0.334335	-0.334115	0.00183731	3	-0.0643473	39	139.812	-6.13875e-07
2	1	0	0	0	835.325	-0.323334	-0.323114	0.00191321	3	-0.0643429	39	142.013	-6.18186e-07
2	1	0	1	0	837.525	-0.312333	-0.312102	0.00196659	3	-0.0643384	39	144.213	-6.13776e-07
2	0	0	1	0	839.725	-0.301332	-0.301078	0.00204431	3	-0.0643338	39	146.413	-6.15497e-07
2	1	0	1	0	841.706	-0.308533	-0.308302	0.00167797	3	-0.0643304	39	148.394	-5.17323e-07
2	1	0	0	0	843.906	-0.319534	-0.319312	0.00148779	3	-0.0643272	39	150.594	-4.75069e-07
2	1	0	1	0	846.107	-0.330535	-0.330308	0.00130929	3	-0.0643245	39	152.794	-4.32469e-07
2	1	0	0	0	848.307	-0.341536	-0.341315	0.00109033	3	-0.0643222	39	154.994	-3.72144e-07
2	0	0	1	0	850.507	-0.352537	-0.352304	0.00104546	3	-0.0643201	39	157.194	-3.6832e-07
2	1	0	0	0	852.707	-0.363538	-0.363315	0.000898414	3	-0.0643182	39	159.395	-3.26407e-07
2	1	0	1	0	854.907	-0.374539	-0.374325	0.000861395	3	-0.0643166	39	161.595	-3.22442e-07
2	1	0	0	0	857.108	-0.385539	-0.385307	0.000777253	3	-0.0643151	39	163.795	-2.99481e-07
2	1	0	1	0	859.308	-0.39654	-0.39631	0.000735038	3	-0.0643137	39	165.995	-2.91303e-07
2	1	0	0	0	861.508	-0.407541	-0.407292	0.000787039	3	-0.0643124	39	168.195	-3.20555e-07
2	1	0	1	0	863.708	-0.418542	-0.418283	0.000683912	3	-0.0643112	39	170.396	-2.86068e-07
2	0	0	0	0	865.908	-0.429543	-0.429313	0.000614045	3	-0.06431	39	172.596	-2.63618e-07
2	1	0	1	0	868.109	-0.440544	-0.440315	0.000619454	3	-0.0643089	39	174.796	-2.72755e-07
2	0	0	0	0	870.309	-0.451545	-0.451323	0.000536217	3	-0.0643079	39	176.996	-2.42007e-07
2	1	0	1	0	872.509	-0.462546	-0.462322	0.000619567	3	-0.0643069	39	179.196	-2.8644e-07
2	1	0	0	0	874.709	-0.473547	-0.473301	0.000471357	3	-0.064306	39	181.397	-2.23093e-07
2	1	0	1	0	876.909	-0.484548	-0.484329	0.0004811	3	-0.0643051	39	183.597	-2.33011e-07
2	1	0	0	0	879.11	-0.495549	-0.495301	0.00050123	3	-0.0643043	39	185.797	-2.4826e-07
2	1	0	1	0	881.31	-0.50655	-0.506334	0.000459849	3	-0.0643036	39	187.997	-2.32837e-07
2	1	0	1	0	883.51	-0.517551	-0.51729	0.000378449	3	-0.0643031	39	190.197	-1.95768e-07
2	1	0	1	0	885.71	-0.528552	-0.528294	0.00032736	3	-0.0643025	39	192.397	-1.72942e-07
2	1	0	1	0	887.91	-0.539553	-0.53929	0.000351023	3	-0.064302	39	194.598	-1.89303e-07
2	1	0	0	0	890.11	-0.550554	-0.550289	0.000362639	3	-0.0643015	39	196.798	-1.99557e-07
2	0	0	1	0	892.311	-0.561555	-0.56129	0.000357953	3	-0.064301	39	198.998	-2.00916e-07
2	1	0	0	0	894.511	-0.572556	-0.572286	0.000335478	3	-0.0643005	39	201.198	-1.9199e-07
2	1	0	1	0	896.711	-0.583557	-0.583311	0.00036434	3	-0.0643001	39	203.398	-2.12523e-07
2	0	0	0	0	898.911	-0.594558	-0.594286	0.000343988	3	-0.0642997	39	205.599	-2.04427e-07
2	1	0	1	0	901.111	-0.605559	-0.6053	0.000350776	3	-0.0642992	39	207.799	-2.12325e-07
2	1	0	0	0	903.312	-0.61656	-0.61633	0.000407132	3	-0.0642989	39	209.999	-2.50928e-07
2	1	0	1	0	905.512	-0.627561	-0.627299	0.000348113	3	-0.0642985	39	212.199	-2.18371e-07
2	1	0	0	0	907.712	-0.638562	-0.638348	0.000296175	3	-0.0642981	39	214.399	-1.89063e-07
2	1	0	1	0	909.912	-0.649563	-0.649303	0.000246645	3	-0.0642978	39	216.6	-1.60147e-07
2	1	0	0	0	912.112	-0.660564	-0.660337	0.00032059	3	-0.0642975	39	218.8	-2.11697e-07
2	1	0	1	0	914.313	-0.671565	-0.671346	0.000289145	3	-0.0642973	39	221	-1.94116e-07
2	1	0	0	0	916.513	-0.682566	-0.682334	0.000236723	3	-0.0642971	39	223.2	-1.61524e-07
2	1	0	1	0	918.713	-0.693567	-0.693329	0.000186364	3	-0.0642969	39	225.4	-1.29211e-07
2	1	0	0	0	920.913	-0.704568	-0.704305	0.000253909	3	-0.0642968	39	227.601	-1.78829e-07
2	1	0	1	0	923.113	-0.715568	-0.715333	0.000249179	3	-0.0642967	39	0.2	-1.78246e-07
2	1	0	0	0	925.314	-0.72657	-0.72632	0.000195954	3	-0.0642967	39	0.000000000000000E+000	-1.42325e-07
2	1	0	1	0	927.514	-0.73757	-0.737308	0.000144534	3	-0.0642967	39	0.000000000000000E+000	-1.06566e-07
2	1	0	0	0	929.714	-0.748571	-0.748322	0.000157073	3	-0.0642967	39	0.000000000000000E+000	-1.17541e-07
2	1	0	1	0	931.914	-0.759572	-0.759317	0.000138836	3	-0.0642967	39	0.000000000000000E+000	-1.05421e-07
2	1	0	0	0	934.114	-0.770573	-0.770303	0.000199616	3	-0.0642967	39	0.6001	-1.53765e-07
2	1	0	1	0	936.315	-0.781574	-0.7813	0.000297645	3	-0.0642966	39	2.8003	-2.3255e-07
2	1	0	0	0	938.515	-0.792575	-0.79231	0.000316369	3	-0.0642963	39	5.0005	-2.50662e-07
2	0	0	1	0	940.715	-0.803576	-0.803323	0.000295095	3	-0.0642959	39	7.2007	-2.37057e-07
2	1	0	0	0	942.915	-0.814577	-0.814342	0.00035013	3	-0.0642955	39	9.4009	-2.85125e-07
2	1	0	1	0	945.115	-0.825578	-0.825344	0.000427341	3	-0.0642952	39	11.6011	-3.52703e-07
2	1	0	0	0	947.316	-0.836579	-0.836343	0.000269406	3	-0.064295	39	13.8013	-2.25316e-07
2	1	0	1	0	949.516	-0.84758	-0.847325	0.000264315	3	-0.0642949	39	16.0015	-2.2396e-07
2	1	0	1	0	951.716	-0.858581	-0.858348	0.000227306	3	-0.0642948	39	18.2016	-1.95108e-07
2	1	0	1	0	953.916	-0.869582	-0.869363	0.000250332	3	-0.0642947	39	20.4018	-2.17629e-07
2	1	0	1	0	956.116	-0.880583	-0.880357	0.000430058	3	-0.0642946	39	22.6019	-3.78605e-07
2	1	0	0	0	958.316	-0.891584	-0.891351	0.000316867	3	-0.0642944	39	24.8021	-2.8244e-07
2	1	0	1	0	960.517	-0.902585	-0.902371	0.000413157	3	-0.0642941	39	27.0023	-3.72821e-07
2	0	0	0	0	962.717	-0.913586	-0.913373	0.000483349	3	-0.0642937	39	29.2025	-4.41478e-07
2	1	0	1	0	964.917	-0.924587	-0.924351	0.000488677	3	-0.0642931	39	31.4027	-4.51709e-07
2	1	0	0	0	967.117	-0.935588	-0.935368	0.000556933	3	-0.0642925	39	33.6029	-5.20937e-07
2	1	0	1	0	969.317	-0.946589	-0.94636	0.000366176	3	-0.0642921	39	35.8031	-3.46534e-07
2	1	0	0	0	971.518	-0.95759	-0.957375	0.000148975	3	-0.0642921	39	0.4	-1.42624e-07
2	1	0	1	0	973.718	-0.968591	-0.968382	3.61835e-06	3	-0.0642925	39	2.6002	-3.50395e-09
2	0	0	0	0	975.918	-0.979592	-0.979358	-0.000421331	3	-0.0642935	39	4.8004	4.12634e-07
2	0	0	1	0	978.118	-0.990593	-0.990392	-0.000877952	3	-0.0642956	39	7.0006	8.69516e-07
2	0	0	0	0	980.318	-1.00159	-1.00135	-0.00142989	3	-0.0642986	39	9.2008	1.43182e-06
2	0	0	1	0	982.519	-1.01259	-1.01238	-0.00194943	3	-0.0643028	39	11.401	1.97356e-06
2	0	0	0	0	984.719	-1.0236	-1.02337	-0.00223347	3	-0.064308	39	13.6012	2.28567e-06
2	0	0	1	0	986.919	-1.0346	-1.03437	-0.00258183	3	-0.0643139	39	15.8014	2.67055e-06
2	0	0	0	0	989.119	-1.0456	-1.04536	-0.00350414	3	-0.0643211	39	18.0016	3.6631e-06
2	0	0	1	0	991.319	-1.0566	-1.05636	-0.00557908	3	-0.0643314	39	20.2018	5.89353e-06
2	0	0	0	0	993.52	-1.0676	-1.06735	-0.00700756	3	-0.0643461	39	22.402	7.47952e-06
2	0	0	1	0	995.72	-1.0786	-1.07834	-0.00791707	3	-0.0643631	39	24.6022	8.53729e-06
2	0	0	0	0	997.92	-1.0896	-1.08937	-0.00894219	3	-0.0643823	39	26.8024	9.74132e-06
2	0	0	1	0	1000.12	-1.1006	-1.10037	-0.0091694	3	-0.064403	39	29.0026	1.00897e-05
2	0	0	0	0	1002.32	-1.1116	-1.11136	-0.00892531	3	-0.0644235	39	31.2028	9.91927e-06
2	0	0	1	0	1004.52	-1.1226	-1.12236	-0.0088035	3	-0.0644436	39	33.403	9.8807e-06
2	0	0	0	0	1006.72	-1.13361	-1.13335	-0.00890238	3	-0.0644636	39	35.6032	1.00895e-05
2	0	0	1	0	1008.92	-1.14461	-1.14438	-0.00934198	3	-0.0644841	39	37.8034	1.06908e-05
2	0	0	0	0	1011.12	-1.15561	-1.15537	-0.0112846	3	-0.0645072	39	40.0036	1.30378e-05
2	0	0	1	0	1013.32	-1.16661	-1.16634	-0.0122459	3	-0.0645339	39	42.2038	1.42829e-05
2	0	0	0	0	1015.52	-1.17761	-1.17735	-0.0128066	3	-0.064562	39	44.404	1.50779e-05
2	0	0	1	0	1017.72	-1.18861	-1.18839	-0.013499	3	-0.0645914	39	46.6042	1.60421e-05
2	0	0	1	0	1019.92	-1.19961	-1.19937	-0.0148111	3	-0.0646231	39	48.8044	1.7764e-05
2	0	0	1	0	1022.12	-1.21061	-1.21036	-0.017012	3	-0.0646587	39	51.0046	2.05906e-05
2	0	0	1	0	1024.32	-1.22161	-1.22137	-0.0203685	3	-0.0647002	39	53.2047	2.48776e-05
2	0	0	1	0	1026.52	-1.23261	-1.23236	-0.0251509	3	-0.0647507	39	55.4049	3.09949e-05
2	0	0	1	0	1028.72	-1.24362	-1.24336	-0.0316184	3	-0.0648135	39	57.605	3.93131e-05
2	0	0	0	0	1030.92	-1.25462	-1.25434	-0.0398878	3	-0.0648925	39	59.8052	5.00328e-05
2	0	0	1	0	1033.12	-1.26562	-1.26535	-0.0508322	3	-0.0649925	39	62.0054	6.43206e-05
2	0	0	0	0	1035.32	-1.27662	-1.27634	-0.0645782	3	-0.0651197	39	64.2056	8.24237e-05
2	0	0	1	0	1037.52	-1.28762	-1.28737	-0.0817845	3	-0.0652809	39	66.4058	0.000105287
2	0	0	0	0	1039.72	-1.29862	-1.29836	-0.103243	3	-0.0654844	39	68.606	0.000134047
2	0	0	1	0	1041.92	-1.30962	-1.30937	-0.130409	3	-0.0657412	39	70.8062	0.000170754
2	0	0	0	0	1044.12	-1.32062	-1.32039	-0.164371	3	-0.0660652	39	73.0064	0.000217034
2	0	0	1	0	1046.32	-1.33162	-1.33137	-0.207468	3	-0.0664731	39	75.2066	0.000276215
2	0	0	0	0	1048.52	-1.34262	-1.34239	-0.265425	3	-0.0669908	39	77.4068	0.000356303
2	0	0	1	1	1050.51	-1.34742	-1.34721	-0.306366	4	-0.0675765	39	79.3875	0.000412738
2	0	0	1	1	1052.71	-1.33642	-1.33618	-0.261191	4	-0.0682004	39	81.5877	0.000348998
2	0	0	1	1	1054.91	-1.32542	-1.32518	-0.218654	4	-0.0687256	39	83.7878	0.000289756
2	0	0	0	1	1057.11	-1.31442	-1.31414	-0.18406	4	-0.0691661	39	85.988	0.000241882
2	0	0	1	1	1059.31	-1.30342	-1.30319	-0.157098	4	-0.0695394	39	88.1882	0.000204728
2	0	0	0	1	1061.51	-1.29242	-1.29216	-0.135902	4	-0.0698602	39	90.3884	0.000175608
2	0	0	1	1	1063.71	-1.28142	-1.28117	-0.119401	4	-0.0701399	39	92.5886	0.000152974
2	0	0	0	1	1065.91	-1.27042	-1.27015	-0.106146	4	-0.0703868	39	94.7888	0.000134822
2	0	0	1	1	1068.11	-1.25942	-1.25918	-0.095068	4	-0.0706071	39	96.989	0.000119707
2	0	0	0	1	1070.31	-1.24842	-1.2482	-0.0856244	4	-0.070805	39	99.1892	0.000106876
2	0	0	1	1	1072.51	-1.23741	-1.23716	-0.0772146	4	-0.0709834	39	101.389	9.55267e-05
2	0	0	0	1	1074.71	-1.22641	-1.22617	-0.0693621	4	-0.071144	39	103.59	8.50495e-05
2	0	0	1	1	1076.91	-1.21541	-1.21516	-0.0619791	4	-0.0712879	39	105.79	7.53144e-05
2	0	0	0	1	1079.11	-1.20441	-1.20418	-0.0548854	4	-0.0714158	39	107.99	6.60921e-05
2	0	0	1	1	1081.31	-1.19341	-1.19318	-0.0478365	4	-0.0715283	39	110.19	5.70775e-05
2	0	0	0	1	1083.51	-1.18241	-1.18215	-0.0408904	4	-0.0716254	39	112.39	4.83387e-05
2	0	0	1	1	1085.71	-1.17141	-1.17117	-0.0342072	4	-0.0717073	39	114.591	4.00625e-05
2	0	0	0	1	1087.91	-1.16041	-1.16017	-0.0279814	4	-0.0717751	39	116.791	3.24632e-05
2	0	0	1	1	1090.11	-1.14941	-1.14916	-0.0225223	4	-0.07183	39	118.991	2.58817e-05
2	0	0	0	1	1092.31	-1.13841	-1.13816	-0.0180047	4	-0.0718739	39	121.191	2.04923e-05
2	0	0	1	1	1094.51	-1.1274	-1.12717	-0.0145278	4	-0.071909	39	123.391	1.63753e-05
2	0	0	0	1	1096.71	-1.1164	-1.11617	-0.0118746	4	-0.0719375	39	125.592	1.3254e-05
2	0	0	1	1	1098.91	-1.1054	-1.10516	-0.00990201	4	-0.0719609	39	127.792	1.09433e-05
2	0	0	0	1	1101.11	-1.0944	-1.09416	-0.00831373	4	-0.0719805	39	129.992	9.09658e-06
2	0	0	1	1	1103.31	-1.0834	-1.08316	-0.00694147	4	-0.0719968	39	132.192	7.5187e-06
2	0	0	0	1	1105.51	-1.0724	-1.07216	-0.00543034	4	-0.0720099	39	134.392	5.82221e-06
2	0	0	1	1	1107.71	-1.0614	-1.06116	-0.00358973	4	-0.0720193	39	136.593	3.80928e-06
2	0	0	0	1	1109.91	-1.0504	-1.05019	-0.00200304	4	-0.0720249	39	138.793	2.10357e-06
2	0	0	1	1	1112.11	-1.0394	-1.03919	-0.00090492	4	-0.0720276	39	140.993	9.40383e-07
2	1	0	1	1	1114.31	-1.0284	-1.02818	4.00294e-05	4	-0.072028	39	0.6001	-4.11576e-08
2	1	0	1	1	1116.51	-1.01739	-1.01717	0.00111732	4	-0.0720263	39	2.8003	-1.13651e-06
2	1	0	1	1	1118.71	-1.00639	-1.00614	0.00308159	4	-0.0720214	39	5.0005	-3.10052e-06
2	1	0	1	1	1120.91	-0.995393	-0.995146	0.00561104	4	-0.0720115	39	7.2007	-5.58381e-06
2	1	0	1	1	1123.11	-0.984392	-0.984169	0.00839022	4	-0.0719956	39	9.4008	-8.2574e-06
2	1	0	0	1	1125.31	-0.973391	-0.973163	0.0111134	4	-0.0719738	39	11.601	-1.08152e-05
2	1	0	1	1	1127.51	-0.96239	-0.962157	0.0140883	4	-0.0719457	39	13.8012	-1.35551e-05
2	1	0	0	1	1129.71	-0.951389	-0.951151	0.016559	4	-0.0719114	39	16.0014	-1.57502e-05
2	1	0	1	1	1131.91	-0.940388	-0.940184	0.0176891	4	-0.0718731	39	18.2016	-1.6631e-05
2	1	0	0	1	1134.11	-0.929387	-0.929159	0.0175035	4	-0.0718339	39	20.4018	-1.62635e-05
2	1	0	1	1	1136.31	-0.918386	-0.918131	0.0177192	4	-0.0717949	39	22.602	-1.62686e-05
2	1	0	0	1	1138.51	-0.907385	-0.907141	0.0181011	4	-0.0717551	39	24.8022	-1.64202e-05
2	1	0	1	1	1140.71	-0.896384	-0.896153	0.0187297	4	-0.071714	39	27.0024	-1.67846e-05
2	1	0	0	1	1142.91	-0.885383	-0.885201	0.019095	4	-0.0716717	39	29.2026	-1.69029e-05
2	1	0	1	1	1145.11	-0.874383	-0.874163	0.0188546	4	-0.0716294	39	31.4028	-1.6482e-05
2	1	0	0	1	1147.31	-0.863382	-0.863149	0.0178647	4	-0.0715882	39	33.603	-1.54199e-05
2	1	0	1	1	1149.51	-0.852381	-0.852185	0.0160147	4	-0.0715502	39	35.8032	-1.36475e-05
2	1	0	0	1	1151.71	-0.84138	-0.841169	0.0134577	4	-0.0715172	39	38.0034	-1.13202e-05
2	1	0	1	1	1153.91	-0.830379	-0.830144	0.0109025	4	-0.07149	39	40.2036	-9.05066e-06
2	1	0	0	1	1156.11	-0.819378	-0.819144	0.00865246	4	-0.0714682	39	42.4038	-7.08761e-06
2	1	0	1	1	1158.31	-0.808377	-0.808123	0.00691326	4	-0.0714508	39	44.604	-5.58677e-06
2	1	0	0	1	1160.51	-0.797376	-0.797151	0.0056097	4	-0.0714367	39	46.8042	-4.47178e-06
2	1	0	1	1	1162.71	-0.786375	-0.786118	0.00463544	4	-0.0714251	39	49.0044	-3.644e-06
2	1	0	0	1	1164.92	-0.775374	-0.775136	0.00387312	4	-0.0714155	39	51.2046	-3.0022e-06
2	1	0	1	1	1167.12	-0.764373	-0.764138	0.00326624	4	-0.0714072	39	53.4048	-2.49586e-06
2	1	0	0	1	1169.32	-0.753372	-0.75314	0.00286005	4	-0.0714002	39	55.605	-2.15401e-06
2	1	0	1	1	1171.52	-0.742371	-0.742125	0.00247359	4	-0.071394	39	57.8052	-1.83572e-06
2	1	0	0	1	1173.72	-0.73137	-0.731142	0.00213538	4	-0.0713886	39	60.0054	-1.56127e-06
2	1	0	1	1	1175.92	-0.720369	-0.720123	0.00194845	4	-0.0713837	39	62.2056	-1.40312e-06
2	1	0	0	1	1178.12	-0.709368	-0.709157	0.00172711	4	-0.0713793	39	64.4058	-1.22479e-06
2	1	0	1	1	1180.32	-0.698367	-0.69813	0.00163033	4	-0.0713753	39	66.606	-1.13818e-06
2	1	0	0	1	1182.52	-0.687366	-0.687117	0.00141444	4	-0.0713716	39	68.8062	-9.71886e-07
2	1	0	1	1	1184.72	-0.676365	-0.676128	0.00135834	4	-0.0713682	39	71.0063	-9.18415e-07
2	1	0	1	1	1186.92	-0.665364	-0.665114	0.00128133	4	-0.0713649	39	73.2065	-8.52228e-07
2	1	0	1	1	1189.12	-0.654363	-0.654124	0.00114723	4	-0.071362	39	75.4067	-7.50429e-07
2	1	0	1	1	1191.32	-0.643362	-0.643115	0.00117038	4	-0.0713592	39	77.6068	-7.52688e-07
2	0	0	0	1	1193.52	-0.632361	-0.632138	0.00100705	4	-0.0713566	39	79.807	-6.36598e-07
2	1	0	1	1	1195.72	-0.62136	-0.62112	0.000931944	4	-0.0713541	39	82.0072	-5.78848e-07
2	1	0	0	1	1197.92	-0.610359	-0.610109	0.000888662	4	-0.0713518	39	84.2074	-5.4218e-07
2	1	0	1	1	1200.12	-0.599358	-0.599109	0.000832118	4	-0.0713496	39	86.4076	-4.98529e-07
2	1	0	0	1	1202.32	-0.588357	-0.588139	0.000856314	4	-0.0713474	39	88.6078	-5.03632e-07
2	0	0	1	1	1204.52	-0.577356	-0.577134	0.000785876	4	-0.0713453	39	90.808	-4.53556e-07
2	1	0	0	1	1206.72	-0.566355	-0.56613	0.00078539	4	-0.0713432	39	93.0082	-4.44633e-07
2	1	0	1	1	1208.92	-0.555354	-0.555109	0.000772768	4	-0.0713411	39	95.2084	-4.2897e-07
2	1	0	0	1	1211.12	-0.544353	-0.544103	0.0007887	4	-0.0713391	39	97.4086	-4.29134e-07
2	1	0	1	1	1213.32	-0.533352	-0.533107	0.000804273	4	-0.071337	39	99.6088	-4.28764e-07
2	0	0	0	1	1215.52	-0.522351	-0.522099	0.000817173	4	-0.071335	39	101.809	-4.26646e-07
2	1	0	1	1	1217.72	-0.511351	-0.511134	0.000832362	4	-0.0713329	39	104.009	-4.25448e-07
2	0	0	0	1	1219.92	-0.50035	-0.500148	0.000780905	4	-0.0713309	39	106.209	-3.90568e-07
2	1	0	1	1	1222.12	-0.489349	-0.489117	0.000746865	4	-0.0713289	39	108.41	-3.65304e-07
2	1	0	0	1	1224.32	-0.478348	-0.478122	0.000753616	4	-0.071327	39	110.61	-3.6032e-07
2	1	0	1	1	1226.52	-0.467347	-0.467116	0.000763305	4	-0.071325	39	112.81	-3.56552e-07
2	1	0	0	1	1228.72	-0.456346	-0.456104	0.000751271	4	-0.071323	39	115.01	-3.42658e-07
2	1	0	1	1	1230.92	-0.445345	-0.445092	0.000825077	4	-0.0713211	39	117.21	-3.67235e-07
2	1	0	0	1	1233.12	-0.434344	-0.434097	0.000832361	4	-0.0713191	39	119.411	-3.61326e-07
2	1	0	1	1	1235.32	-0.423343	-0.423102	0.000775797	4	-0.0713171	39	121.611	-3.28241e-07
2	1	0	0	1	1236.34	-0.418192	-0.417906	0.00119996	4	-0.0713161	39	122.629	-5.01469e-07