File: Fig 2/Fig 2_np-Fe2O3_100 mvs.mpt
mode	ox/red	error	control changes	counter inc.	time/s	control/V	Ewe/V	<I>/mA	cycle number	(Q-Qo)/C	I Range	step time/s	P/W
2	1	0	0	0	0.000000000000000E+000	-0.299952	-0.300139	0.82517	1	0.0000000E+000	39	0.000000000000000E+000	-0.000247666
2	1	0	1	0	0.0865	-0.308701	-0.308971	0.00814604	1	3.46484e-06	39	0.0863	-2.51689e-06
2	1	0	1	0	0.1965	-0.319699	-0.319985	0.00313269	1	3.92364e-06	39	0.1963	-1.00241e-06
2	1	0	1	0	0.3065	-0.330697	-0.330969	0.00148865	1	4.09524e-06	39	0.3063	-4.92697e-07
2	0	0	1	0	0.4165	-0.341695	-0.34196	0.00143933	1	4.16456e-06	39	0.4163	-4.92193e-07
2	1	0	1	0	0.5265	-0.352693	-0.35295	0.000670411	1	4.1786e-06	39	0.05	-2.36622e-07
2	1	0	1	0	0.6365	-0.363691	-0.363919	0.000768789	1	4.15209e-06	39	0.16	-2.79777e-07
2	1	0	1	0	0.7465	-0.37469	-0.374947	0.000501216	1	4.10134e-06	39	0.27	-1.8793e-07
2	1	0	1	0	0.8565	-0.385688	-0.385945	5.34687e-05	1	4.02643e-06	39	0.38	-2.0636e-08
2	0	0	1	0	0.9665	-0.396686	-0.39697	0.000265653	1	3.93687e-06	39	0.49	-1.05456e-07
2	0	0	1	0	1.0765	-0.407684	-0.407935	-0.000194526	1	3.83117e-06	39	0.6	7.9354e-08
2	1	0	1	0	1.1863	-0.418682	-0.418938	-3.43634e-05	1	3.70944e-06	39	0.7098	1.43962e-08
2	0	0	1	0	1.2963	-0.42968	-0.429958	-0.00034554	1	3.5649e-06	39	0.8198	1.48568e-07
2	0	0	1	0	1.4063	-0.440678	-0.440942	-0.000424361	1	3.4217e-06	39	0.9298	1.87119e-07
2	1	0	1	0	1.5163	-0.451677	-0.45191	-5.64193e-05	1	3.26709e-06	39	1.0398	2.54965e-08
2	0	0	1	0	1.6263	-0.462675	-0.462928	-0.000877361	1	3.10327e-06	39	1.1498	4.06155e-07
2	0	0	1	0	1.7363	-0.473673	-0.473934	-0.000599983	1	2.92516e-06	39	1.2598	2.84352e-07
2	0	0	1	0	1.8463	-0.484671	-0.484929	-0.000773339	1	2.72375e-06	39	1.3698	3.75014e-07
2	0	0	1	0	1.9563	-0.495669	-0.495903	-0.00111925	1	2.50985e-06	39	1.4798	5.55037e-07
2	0	0	1	0	2.0663	-0.506667	-0.506928	-0.000542159	1	2.29263e-06	39	1.5898	2.74836e-07
2	0	0	1	0	2.1763	-0.517666	-0.51793	-0.00151874	1	2.04697e-06	39	1.6998	7.86602e-07
2	1	0	1	0	2.2863	-0.528664	-0.528918	-0.00101893	1	1.79588e-06	39	1.8098	5.38931e-07
2	0	0	1	0	2.3961	-0.539662	-0.539932	-0.00153743	1	1.52997e-06	39	1.9196	8.30108e-07
2	0	0	1	0	2.5061	-0.55066	-0.550928	-0.00150007	1	1.24453e-06	39	2.0296	8.26432e-07
2	0	0	1	0	2.6161	-0.561658	-0.561924	-0.00123319	1	9.43035e-07	39	2.1396	6.92959e-07
2	0	0	1	0	2.7261	-0.572656	-0.572895	-0.00201582	1	6.23069e-07	39	2.2496	1.15485e-06
2	0	0	1	0	2.8361	-0.583654	-0.583925	-0.00179923	1	2.75573e-07	39	2.3596	1.05062e-06
2	0	0	1	0	2.9461	-0.594653	-0.594878	-0.0022248	1	-8.04549e-08	39	2.4696	1.32348e-06
2	0	0	1	0	3.0561	-0.605651	-0.605905	-0.00257984	1	-4.62906e-07	39	2.5796	1.56314e-06
2	0	0	1	0	3.1661	-0.616649	-0.616892	-0.002038	1	-8.62029e-07	39	2.6896	1.25723e-06
2	0	0	1	0	3.2761	-0.627647	-0.62793	-0.00301324	1	-1.2831e-06	39	2.7996	1.89211e-06
2	0	0	1	0	3.3861	-0.638645	-0.63891	-0.00251121	1	-1.72716e-06	39	2.9096	1.60444e-06
2	0	0	1	0	3.4961	-0.649643	-0.649901	-0.00315065	1	-2.20437e-06	39	3.0196	2.04761e-06
2	0	0	1	0	3.6059	-0.660641	-0.660895	-0.00361509	1	-2.70494e-06	39	3.1294	2.38919e-06
2	0	0	1	0	3.7159	-0.67164	-0.671871	-0.00322558	1	-3.2288e-06	39	3.2394	2.16717e-06
2	0	0	1	0	3.8259	-0.682638	-0.682921	-0.00437629	1	-3.78559e-06	39	3.3494	2.98866e-06
2	0	0	1	0	3.9359	-0.693636	-0.69388	-0.00331718	1	-4.36606e-06	39	3.4594	2.30172e-06
2	0	0	1	0	4.0459	-0.704634	-0.704892	-0.00479373	1	-4.9877e-06	39	3.5694	3.37906e-06
2	0	0	1	0	4.1559	-0.715632	-0.715896	-0.00486734	1	-5.64977e-06	39	3.6794	3.48451e-06
2	0	0	1	0	4.2659	-0.72663	-0.726897	-0.00506915	1	-6.3581e-06	39	3.7894	3.68475e-06
2	0	0	1	0	4.3759	-0.737628	-0.737903	-0.00613319	1	-7.11375e-06	39	3.8994	4.5257e-06
2	0	0	1	0	4.4859	-0.748627	-0.748883	-0.00579504	1	-7.92039e-06	39	4.0094	4.3398e-06
2	0	0	1	0	4.5959	-0.759625	-0.759898	-0.00665087	1	-8.77597e-06	39	4.1194	5.05398e-06
2	0	0	1	0	4.7059	-0.770623	-0.770898	-0.00690296	1	-9.68666e-06	39	4.2294	5.32148e-06
2	0	0	1	0	4.8157	-0.781621	-0.781885	-0.00721794	1	-1.06538e-05	39	4.3392	5.6436e-06
2	0	0	1	0	4.9257	-0.792619	-0.792875	-0.00845759	1	-1.16748e-05	39	4.4492	6.70581e-06
2	0	0	1	0	5.0357	-0.803617	-0.803857	-0.00795179	1	-1.27653e-05	39	4.5592	6.3921e-06
2	0	0	1	0	5.1457	-0.814615	-0.814892	-0.00938948	1	-1.39116e-05	39	4.6692	7.65142e-06
2	0	0	1	0	5.2557	-0.825614	-0.825873	-0.0096377	1	-1.51273e-05	39	4.7792	7.95952e-06
2	0	0	1	0	5.3657	-0.836612	-0.836869	-0.0101374	1	-1.6407e-05	39	4.8892	8.48363e-06
2	0	0	1	0	5.4757	-0.84761	-0.84787	-0.0111319	1	-1.77597e-05	39	4.9992	9.43843e-06
2	0	0	1	0	5.5857	-0.858608	-0.858895	-0.0110309	1	-1.91821e-05	39	5.1092	9.47435e-06
2	0	0	1	0	5.6957	-0.869606	-0.869867	-0.0126723	1	-2.06775e-05	39	5.2192	1.10232e-05
2	0	0	1	0	5.8057	-0.880604	-0.880849	-0.0124537	1	-2.22465e-05	39	5.3292	1.09698e-05
2	0	0	1	0	5.9157	-0.891603	-0.891865	-0.0128803	1	-2.38931e-05	39	5.4392	1.14875e-05
2	0	0	1	0	6.0255	-0.902601	-0.902846	-0.0147306	1	-2.56196e-05	39	5.549	1.32995e-05
2	0	0	1	0	6.1355	-0.913599	-0.913836	-0.014125	1	-2.74294e-05	39	5.659	1.29079e-05
2	0	0	1	0	6.2455	-0.924597	-0.924856	-0.016224	1	-2.93352e-05	39	5.769	1.50049e-05
2	0	0	1	0	6.3555	-0.935595	-0.935866	-0.0166127	1	-3.13356e-05	39	5.879	1.55473e-05
2	0	0	1	0	6.4655	-0.946593	-0.946837	-0.017633	1	-3.34435e-05	39	5.989	1.66956e-05
2	0	0	1	0	6.5755	-0.957591	-0.957843	-0.0195611	1	-3.56625e-05	39	6.099	1.87365e-05
2	0	0	1	0	6.6855	-0.96859	-0.968842	-0.0193941	1	-3.803e-05	39	6.209	1.87898e-05
2	0	0	1	0	6.7955	-0.979588	-0.979812	-0.0230789	1	-4.05986e-05	39	6.319	2.2613e-05
2	0	0	1	0	6.9055	-0.990586	-0.990837	-0.0253138	1	-4.34443e-05	39	6.429	2.50819e-05
2	0	0	1	0	7.0155	-1.00158	-1.00183	-0.0308372	1	-4.67357e-05	39	6.539	3.08937e-05
2	0	0	1	0	7.1253	-1.01258	-1.01283	-0.039407	1	-5.07504e-05	39	6.6488	3.99125e-05
2	0	0	1	0	7.2353	-1.02358	-1.02382	-0.0495058	1	-5.58285e-05	39	6.7588	5.06851e-05
2	0	0	1	0	7.3453	-1.03458	-1.03481	-0.0637715	1	-6.22571e-05	39	6.8688	6.59911e-05
2	0	0	1	0	7.4553	-1.04558	-1.04582	-0.0784607	1	-7.03065e-05	39	6.9788	8.20559e-05
2	0	0	1	0	7.5653	-1.05657	-1.05684	-0.0947646	1	-8.01153e-05	39	7.0888	0.000100151
2	0	0	1	0	7.6753	-1.06757	-1.06782	-0.110973	1	-9.16511e-05	39	7.1988	0.000118498
2	0	0	1	0	7.7853	-1.07857	-1.07883	-0.122767	1	-0.000104743	39	7.3088	0.000132445
2	0	0	1	0	7.8953	-1.08957	-1.08983	-0.134631	1	-0.000119164	39	7.4188	0.000146725
2	0	0	1	0	8.0053	-1.10057	-1.10083	-0.14157	1	-0.000134621	39	7.5288	0.000155844
2	0	0	1	0	8.1153	-1.11157	-1.1118	-0.149193	1	-0.000150915	39	7.6388	0.000165873
2	0	0	1	0	8.2253	-1.12256	-1.12281	-0.158998	1	-0.000168011	39	7.7488	0.000178525
2	0	0	1	0	8.3351	-1.13356	-1.13382	-0.233442	1	-0.00018839	39	7.8586	0.000264681
2	0	0	1	0	8.4451	-1.14456	-1.1448	-0.460015	1	-0.000226013	39	7.9686	0.000526623
2	0	0	1	0	8.5551	-1.15556	-1.1558	-0.694434	1	-0.000290247	39	8.0786	0.000802629
2	0	0	1	0	8.6651	-1.16656	-1.16683	-0.851284	1	-0.000376386	39	8.1886	0.000993305
2	0	0	1	0	8.7751	-1.17755	-1.17782	-0.925126	1	-0.000474924	39	8.2986	0.00108963
2	0	0	1	0	8.8851	-1.18855	-1.18881	-0.950519	1	-0.000578548	39	8.4086	0.00112998
2	0	0	1	0	8.9951	-1.19955	-1.1998	-0.95046	1	-0.000683289	39	8.5186	0.00114036
2	0	0	1	0	9.1051	-1.21055	-1.21081	-0.94633	1	-0.000787863	39	8.6286	0.00114583
2	0	0	1	0	9.2151	-1.22155	-1.2218	-0.94586	1	-0.00089216	39	8.7386	0.00115565
2	0	0	1	0	9.3251	-1.23255	-1.2328	-0.969662	1	-0.000997549	39	8.8486	0.0011954
2	0	0	1	0	9.4351	-1.24354	-1.24379	-1.00238	1	-0.00110623	39	8.9586	0.00124675
2	0	0	1	0	9.5449	-1.25454	-1.25478	-1.06605	1	-0.00121971	39	9.0684	0.00133766
2	0	0	1	0	9.6549	-1.26554	-1.2658	-1.1644	1	-0.00134252	39	9.1784	0.00147389
2	0	0	1	0	9.7649	-1.27654	-1.27679	-1.33002	1	-0.00147924	39	9.2884	0.00169815
2	0	0	1	0	9.8749	-1.28754	-1.28779	-1.58886	1	-0.0016382	39	9.3984	0.00204613
2	0	0	1	0	9.9849	-1.29853	-1.29878	-2.09041	1	-0.00183792	39	9.5084	0.00271499
2	0	0	1	0	10.0949	-1.30953	-1.3098	-2.86909	1	-0.00210855	39	9.6184	0.00375793
2	0	0	1	0	10.2049	-1.32053	-1.32081	-3.84265	1	-0.00247762	39	9.7284	0.0050754
2	0	0	1	0	10.3149	-1.33153	-1.3318	-4.91166	1	-0.0029605	39	9.8384	0.00654135
2	0	0	1	0	10.4249	-1.34253	-1.3428	-5.95978	1	-0.00355931	39	9.9484	0.00800279
2	0	0	1	1	10.5253	-1.34743	-1.34771	-6.42767	2	-0.00419949	39	10.0488	0.00866263
2	0	0	1	1	10.6353	-1.33643	-1.33668	-5.24322	2	-0.00484113	39	10.1588	0.00700849
2	0	0	1	1	10.7453	-1.32543	-1.32569	-4.19714	2	-0.00535924	39	10.2688	0.00556408
2	0	0	1	1	10.8553	-1.31443	-1.3147	-3.26121	2	-0.0057676	39	10.3788	0.0042875
2	0	0	1	1	10.9653	-1.30343	-1.30367	-2.49511	2	-0.00608189	39	10.4888	0.00325281
2	0	0	1	1	11.0753	-1.29244	-1.29268	-1.86759	2	-0.00631958	39	10.5988	0.00241419
2	0	0	1	1	11.1853	-1.28144	-1.28169	-1.38326	2	-0.00649698	39	10.7088	0.00177291
2	0	0	1	1	11.2953	-1.27044	-1.27071	-1.03918	2	-0.00662901	39	10.8188	0.0013205
2	0	0	1	1	11.4053	-1.25944	-1.25969	-0.780624	2	-0.00672796	39	10.9288	0.000983345
2	0	0	1	1	11.5151	-1.24844	-1.2487	-0.60452	2	-0.00680298	39	11.0386	0.000754866
2	0	0	1	1	11.6251	-1.23744	-1.2377	-0.477182	2	-0.00686156	39	11.1486	0.000590606
2	0	0	1	1	11.7351	-1.22645	-1.2267	-0.3891	2	-0.00690878	39	11.2586	0.000477308
2	0	0	1	1	11.8451	-1.21545	-1.21572	-0.329387	2	-0.00694771	39	11.3686	0.000400443
2	0	0	1	1	11.9551	-1.20445	-1.20469	-0.277685	2	-0.00698059	39	11.4786	0.000334525
2	0	0	1	1	12.0651	-1.19345	-1.1937	-0.241061	2	-0.00700875	39	11.5886	0.000287756
2	0	0	1	1	12.1751	-1.18245	-1.1827	-0.210399	2	-0.00703309	39	11.6986	0.00024884
2	0	0	1	1	12.2851	-1.17146	-1.17172	-0.18111	2	-0.00705424	39	11.8086	0.000212211
2	0	0	1	1	12.3951	-1.16046	-1.16071	-0.15958	2	-0.00707251	39	11.9186	0.000185227
2	0	0	1	1	12.5051	-1.14946	-1.14972	-0.134796	2	-0.00708829	39	12.0286	0.000154978
2	0	0	1	1	12.6151	-1.13846	-1.1387	-0.113956	2	-0.00710155	39	12.1386	0.000129762
2	0	0	1	1	12.7249	-1.12746	-1.12771	-0.0935143	2	-0.00711247	39	12.2484	0.000105457
2	0	0	1	1	12.8349	-1.11646	-1.11671	-0.0749074	2	-0.00712129	39	12.3584	8.36498e-05
2	0	0	1	1	12.9449	-1.10547	-1.10573	-0.0605539	2	-0.00712828	39	12.4684	6.69562e-05
2	0	0	1	1	13.0549	-1.09447	-1.09473	-0.0425734	2	-0.00713353	39	12.5784	4.66062e-05
2	0	0	1	1	13.1649	-1.08347	-1.08372	-0.0319426	2	-0.00713725	39	12.6884	3.4617e-05
2	0	0	1	1	13.2749	-1.07247	-1.07272	-0.018281	2	-0.00713954	39	12.7984	1.96103e-05
2	0	0	1	1	13.3849	-1.06147	-1.06171	-0.0046508	2	-0.00714042	39	12.9084	4.9378e-06
2	1	0	1	1	13.4949	-1.05048	-1.05073	0.00937309	2	-0.00713966	39	0.09	-9.84863e-06
2	1	0	1	1	13.6049	-1.03948	-1.03976	0.0349601	2	-0.00713685	39	0.2	-3.63501e-05
2	1	0	1	1	13.7149	-1.02848	-1.02873	0.061678	2	-0.00713126	39	0.31	-6.34499e-05
2	1	0	1	1	13.8249	-1.01748	-1.01773	0.104069	2	-0.00712178	39	0.42	-0.000105914
2	1	0	1	1	13.9347	-1.00648	-1.00673	0.14166	2	-0.00710783	39	0.5298	-0.000142613
2	1	0	1	1	14.0447	-0.995485	-0.995739	0.154188	2	-0.00709079	39	0.6398	-0.000153531
2	1	0	1	1	14.1547	-0.984487	-0.984744	0.150464	2	-0.00707344	39	0.7498	-0.000148168
2	1	0	1	1	14.2647	-0.973489	-0.973719	0.132499	2	-0.00705755	39	0.8598	-0.000129017
2	1	0	1	1	14.3747	-0.962491	-0.962744	0.12997	2	-0.0070428	39	0.9698	-0.000125127
2	1	0	1	1	14.4847	-0.951492	-0.951754	0.136281	2	-0.00702789	39	1.0798	-0.000129706
2	1	0	1	1	14.5947	-0.940494	-0.940757	0.146716	2	-0.00701199	39	1.1898	-0.000138025
2	1	0	1	1	14.7047	-0.929496	-0.929742	0.167223	2	-0.0069944	39	1.2998	-0.000155474
2	1	0	1	1	14.8147	-0.918498	-0.918768	0.189237	2	-0.00697449	39	1.4098	-0.000173865
2	1	0	1	1	14.9247	-0.9075	-0.907755	0.219466	2	-0.00695165	39	1.5198	-0.000199222
2	1	0	1	1	15.0347	-0.896502	-0.896757	0.248652	2	-0.0069256	39	1.6298	-0.00022298
2	1	0	1	1	15.1445	-0.885504	-0.885766	0.270915	2	-0.00689663	39	1.7396	-0.000239967
2	1	0	1	1	15.2545	-0.874505	-0.874756	0.284473	2	-0.00686561	39	1.8496	-0.000248844
2	1	0	1	1	15.3645	-0.863507	-0.863787	0.277926	2	-0.00683421	39	1.9596	-0.000240068
2	1	0	1	1	15.4745	-0.852509	-0.852744	0.2662	2	-0.00680383	39	2.0696	-0.000227001
2	1	0	1	1	15.5845	-0.841511	-0.841791	0.25267	2	-0.00677502	39	2.1796	-0.000212695
2	1	0	1	1	15.6945	-0.830513	-0.83078	0.238326	2	-0.00674772	39	2.2896	-0.000197997
2	1	0	1	1	15.8045	-0.819515	-0.819797	0.228459	2	-0.00672176	39	2.3996	-0.00018729
2	1	0	1	1	15.9145	-0.808516	-0.808775	0.215674	2	-0.00669706	39	2.5096	-0.000174432
2	1	0	1	1	16.0245	-0.797518	-0.797773	0.20576	2	-0.00667357	39	2.6196	-0.00016415
2	1	0	1	1	16.1345	-0.78652	-0.786773	0.196017	2	-0.00665127	39	2.7296	-0.000154221
2	1	0	1	1	16.2445	-0.775522	-0.775781	0.185537	2	-0.00663004	39	2.8396	-0.000143936
2	1	0	1	1	16.3543	-0.764524	-0.764788	0.178338	2	-0.00660986	39	2.9494	-0.000136391
2	1	0	1	1	16.4643	-0.753526	-0.753772	0.169399	2	-0.00659053	39	3.0594	-0.000127688
2	1	0	1	1	16.5743	-0.742528	-0.742793	0.162732	2	-0.00657201	39	3.1694	-0.000120876
2	1	0	1	1	16.6843	-0.731529	-0.731814	0.157187	2	-0.00655419	39	3.2794	-0.000115032
2	1	0	1	1	16.7943	-0.720531	-0.720803	0.151469	2	-0.00653699	39	3.3894	-0.000109179
2	1	0	1	1	16.9043	-0.709533	-0.709804	0.148179	2	-0.00652032	39	3.4994	-0.000105178
2	1	0	1	1	17.0143	-0.698535	-0.698811	0.143267	2	-0.0065041	39	3.6094	-0.000100117
2	1	0	1	1	17.1243	-0.687537	-0.687824	0.140234	2	-0.00648828	39	3.7194	-9.64561e-05
2	1	0	1	1	17.2343	-0.676539	-0.676801	0.137738	2	-0.00647278	39	3.8294	-9.32215e-05
2	1	0	1	1	17.3443	-0.665541	-0.665826	0.135023	2	-0.00645753	39	3.9394	-8.99021e-05
2	1	0	1	1	17.4541	-0.654542	-0.654812	0.135223	2	-0.0064425	39	4.0492	-8.85459e-05
2	1	0	1	1	17.5641	-0.643544	-0.64381	0.133204	2	-0.00642758	39	4.1592	-8.57583e-05
2	1	0	1	1	17.6741	-0.632546	-0.632828	0.133026	2	-0.00641274	39	4.2692	-8.41823e-05
2	1	0	1	1	17.7841	-0.621548	-0.621802	0.132781	2	-0.00639795	39	4.3792	-8.25632e-05
2	1	0	1	1	17.8941	-0.61055	-0.610816	0.132338	2	-0.00638315	39	4.4892	-8.0834e-05
2	1	0	1	1	18.0041	-0.599552	-0.599795	0.134027	2	-0.00636832	39	4.5992	-8.03889e-05
2	1	0	1	1	18.1141	-0.588554	-0.588831	0.133656	2	-0.00635343	39	4.7092	-7.87005e-05
2	1	0	1	1	18.2241	-0.577555	-0.577823	0.134665	2	-0.00633848	39	4.8192	-7.78126e-05
2	1	0	1	1	18.3341	-0.566557	-0.566843	0.135256	2	-0.00632348	39	4.9292	-7.66686e-05
2	1	0	1	1	18.4441	-0.555559	-0.555845	0.134692	2	-0.00630842	39	5.0392	-7.48677e-05
2	1	0	1	1	18.5541	-0.544561	-0.544823	0.135882	2	-0.00629335	39	5.1492	-7.40319e-05
2	1	0	1	1	18.6639	-0.533563	-0.533842	0.134729	2	-0.00627832	39	5.259	-7.19239e-05
2	1	0	1	1	18.7739	-0.522565	-0.522842	0.134166	2	-0.00626334	39	5.369	-7.01479e-05
2	1	0	1	1	18.8839	-0.511567	-0.511849	0.133265	2	-0.00624849	39	5.479	-6.82114e-05
2	1	0	1	1	18.9939	-0.500568	-0.500835	0.130928	2	-0.00623381	39	5.589	-6.55733e-05
2	1	0	1	1	19.1039	-0.48957	-0.489821	0.128754	2	-0.00621936	39	5.699	-6.30666e-05
2	1	0	1	1	19.2139	-0.478572	-0.47885	0.125764	2	-0.00620519	39	5.809	-6.02221e-05
2	1	0	1	1	19.3239	-0.467574	-0.467837	0.123241	2	-0.00619132	39	5.919	-5.76568e-05
2	1	0	1	1	19.4339	-0.456576	-0.456837	0.12084	2	-0.00617778	39	6.029	-5.52044e-05
2	1	0	1	1	19.5439	-0.445578	-0.445829	0.116793	2	-0.00616459	39	6.139	-5.20698e-05
2	1	0	1	1	19.6539	-0.43458	-0.434847	0.11436	2	-0.00615173	39	6.249	-4.97289e-05
2	1	0	1	1	19.7639	-0.423581	-0.423853	0.111076	2	-0.0061392	39	6.359	-4.70798e-05
2	1	0	1	1	19.8737	-0.412583	-0.412841	0.108476	2	-0.00612701	39	6.4688	-4.47835e-05
2	1	0	1	1	19.9837	-0.401585	-0.401819	0.105825	2	-0.00611508	39	6.5788	-4.25226e-05
2	1	0	1	1	20.0937	-0.390587	-0.390847	0.103478	2	-0.00610343	39	6.6888	-4.04442e-05
2	1	0	1	1	20.2037	-0.379589	-0.379846	0.101692	2	-0.00609204	39	6.7988	-3.86273e-05
2	1	0	1	1	20.3137	-0.368591	-0.368845	0.0989517	2	-0.00608088	39	6.9088	-3.64979e-05
2	1	0	1	1	20.4237	-0.357592	-0.357859	0.0970191	2	-0.00606997	39	7.0188	-3.47192e-05
2	1	0	1	1	20.5337	-0.346594	-0.346843	0.095152	2	-0.00605927	39	7.1288	-3.30028e-05
2	1	0	1	1	20.6437	-0.335596	-0.33586	0.0934483	2	-0.00604876	39	7.2388	-3.13856e-05
2	1	0	1	1	20.7537	-0.324598	-0.324834	0.0922557	2	-0.00603845	39	7.3488	-2.99678e-05
2	1	0	1	1	20.8637	-0.3136	-0.313838	0.0902091	2	-0.0060283	39	7.4588	-2.8311e-05
2	1	0	1	1	20.9737	-0.302602	-0.302854	0.0889163	2	-0.0060183	39	7.5688	-2.69287e-05
2	1	0	1	1	21.0651	-0.306501	-0.306754	0.0774893	2	-0.00601069	39	7.6602	-2.37701e-05
2	1	0	1	1	21.1751	-0.317499	-0.317745	0.0668623	2	-0.00600288	39	7.7702	-2.12452e-05
2	1	0	1	1	21.2851	-0.328497	-0.328743	0.0592464	2	-0.00599609	39	7.8802	-1.94769e-05
2	1	0	1	1	21.3951	-0.339496	-0.339733	0.0521641	2	-0.0059901	39	7.9902	-1.77219e-05
2	1	0	1	1	21.5051	-0.350494	-0.350748	0.0472133	2	-0.00598476	39	8.1002	-1.656e-05
2	1	0	1	1	21.6151	-0.361492	-0.361714	0.0426743	2	-0.00597996	39	8.2102	-1.54359e-05
2	1	0	1	1	21.7251	-0.37249	-0.372724	0.038873	2	-0.00597562	39	8.3202	-1.44889e-05
2	1	0	1	1	21.8351	-0.383488	-0.383719	0.0358772	2	-0.00597169	39	8.4302	-1.37668e-05
2	1	0	1	1	21.9451	-0.394486	-0.394716	0.0323263	2	-0.00596809	39	8.5402	-1.27597e-05
2	1	0	1	1	22.0551	-0.405484	-0.405715	0.0301232	2	-0.0059648	39	8.6502	-1.22214e-05
2	1	0	1	1	22.1651	-0.416483	-0.416741	0.0275334	2	-0.00596177	39	8.7602	-1.14743e-05
2	1	0	1	1	22.2749	-0.427481	-0.427736	0.0253735	2	-0.00595899	39	8.87	-1.08532e-05
2	1	0	1	1	22.3849	-0.438479	-0.438722	0.0241427	2	-0.00595642	39	8.98	-1.0592e-05
2	1	0	1	1	22.4949	-0.449477	-0.449743	0.0219005	2	-0.00595404	39	9.09	-9.8496e-06
2	1	0	1	1	22.6049	-0.460475	-0.46073	0.0206083	2	-0.00595183	39	9.2	-9.49488e-06
2	1	0	1	1	22.7149	-0.471473	-0.471712	0.0188841	2	-0.00594978	39	9.31	-8.90784e-06
2	1	0	1	1	22.8249	-0.482471	-0.482724	0.017746	2	-0.00594787	39	9.42	-8.5664e-06
2	1	0	1	1	22.9349	-0.49347	-0.493727	0.017268	2	-0.00594611	39	9.53	-8.52567e-06
2	1	0	1	1	23.0449	-0.504468	-0.504731	0.0155469	2	-0.00594446	39	9.64	-7.84699e-06
2	1	0	1	1	23.1549	-0.515466	-0.515709	0.015136	2	-0.00594291	39	9.75	-7.80577e-06
2	1	0	1	1	23.2649	-0.526464	-0.526738	0.0138084	2	-0.00594147	39	9.86	-7.2734e-06
2	1	0	1	1	23.3747	-0.537462	-0.537731	0.0129224	2	-0.00594013	39	9.9698	-6.94879e-06
2	1	0	1	1	23.4847	-0.54846	-0.548715	0.0122683	2	-0.00593889	39	10.0798	-6.73183e-06
2	1	0	1	1	23.5947	-0.559458	-0.559717	0.0111276	2	-0.00593773	39	10.1898	-6.22832e-06
2	1	0	1	1	23.7047	-0.570457	-0.570698	0.0115069	2	-0.00593665	39	10.2998	-6.56699e-06
2	1	0	1	1	23.8147	-0.581455	-0.581712	0.00981063	2	-0.00593566	39	10.4098	-5.70696e-06
2	1	0	1	1	23.9247	-0.592453	-0.592712	0.00942773	2	-0.00593473	39	10.5198	-5.58793e-06
2	1	0	1	1	24.0347	-0.603451	-0.603708	0.00912505	2	-0.00593387	39	10.6298	-5.50886e-06
2	1	0	1	1	24.1447	-0.614449	-0.614712	0.00781492	2	-0.00593309	39	10.7398	-4.80393e-06
2	1	0	1	1	24.2547	-0.625447	-0.625736	0.00798343	2	-0.00593238	39	10.8498	-4.99552e-06
2	1	0	1	1	24.3647	-0.636446	-0.636711	0.00686764	2	-0.00593175	39	10.9598	-4.3727e-06
2	1	0	1	1	24.4747	-0.647444	-0.647709	0.0062416	2	-0.00593117	39	11.0698	-4.04274e-06
2	1	0	1	1	24.5845	-0.658442	-0.658714	0.0060913	2	-0.00593068	39	11.1796	-4.01242e-06
2	1	0	1	1	24.6945	-0.66944	-0.669701	0.00457885	2	-0.00593026	39	11.2896	-3.06646e-06
2	1	0	1	1	24.8045	-0.680438	-0.680702	0.00456733	2	-0.00592992	39	11.3996	-3.10899e-06
2	1	0	1	1	24.9145	-0.691436	-0.691702	0.00321943	2	-0.00592967	39	11.5096	-2.22689e-06
2	1	0	1	1	25.0245	-0.702434	-0.702691	0.00257927	2	-0.00592952	39	11.6196	-1.81243e-06
2	1	0	1	1	25.1345	-0.713433	-0.713705	0.00186433	2	-0.00592949	39	0.02	-1.33058e-06
2	1	0	1	1	25.2445	-0.724431	-0.724695	-0.000562923	2	-0.0059296	39	0.13	4.07947e-07
2	0	0	1	1	25.3545	-0.735429	-0.735686	-0.00109874	2	-0.00592987	39	0.24	8.08324e-07
2	0	0	1	1	25.4645	-0.746427	-0.74671	-0.00396367	2	-0.00593033	39	0.35	2.95971e-06
2	0	0	1	1	25.5745	-0.757425	-0.75771	-0.00571962	2	-0.00593104	39	0.46	4.33381e-06
2	0	0	1	1	25.6845	-0.768423	-0.768687	-0.00835572	2	-0.00593203	39	0.57	6.42294e-06
2	0	0	1	1	25.7943	-0.779421	-0.779674	-0.0127649	2	-0.00593338	39	0.6798	9.95243e-06
2	0	0	1	1	25.9043	-0.79042	-0.790663	-0.0156008	2	-0.00593514	39	0.7898	1.2335e-05
2	0	0	1	1	26.0143	-0.801418	-0.801659	-0.0212158	2	-0.00593737	39	0.8998	1.70078e-05
2	0	0	1	1	26.1243	-0.812416	-0.81266	-0.0251758	2	-0.00594012	39	1.0098	2.04594e-05
2	0	0	1	1	26.2343	-0.823414	-0.823667	-0.0297613	2	-0.00594341	39	1.1198	2.45134e-05
2	0	0	1	1	26.3443	-0.834412	-0.834668	-0.0354861	2	-0.00594722	39	1.2298	2.96191e-05
2	0	0	1	1	26.4543	-0.84541	-0.845659	-0.0383379	2	-0.00595153	39	1.3398	3.24208e-05
2	0	0	1	1	26.5643	-0.856408	-0.856652	-0.0433023	2	-0.00595625	39	1.4498	3.7095e-05
2	0	0	1	1	26.6743	-0.867407	-0.867658	-0.0446139	2	-0.00596131	39	1.5598	3.87096e-05
2	0	0	1	1	26.7843	-0.878405	-0.878651	-0.0465392	2	-0.00596662	39	1.6698	4.08918e-05
2	0	0	1	1	26.8943	-0.889403	-0.88965	-0.0489712	2	-0.00597211	39	1.7798	4.35672e-05
2	0	0	1	1	27.0041	-0.900401	-0.900637	-0.0488449	2	-0.00597774	39	1.8896	4.39915e-05
2	0	0	1	1	27.1141	-0.911399	-0.911638	-0.0513664	2	-0.0059835	39	1.9996	4.68276e-05
2	0	0	1	1	27.2241	-0.922397	-0.922641	-0.0514842	2	-0.00598939	39	2.1096	4.75014e-05
2	0	0	1	1	27.3341	-0.933395	-0.933633	-0.0534115	2	-0.00599543	39	2.2196	4.98667e-05
2	0	0	1	1	27.4441	-0.944394	-0.944624	-0.0563506	2	-0.00600169	39	2.3296	5.32301e-05
2	0	0	1	1	27.5541	-0.955392	-0.955625	-0.0575188	2	-0.00600824	39	2.4396	5.49664e-05
2	0	0	1	1	27.6641	-0.96639	-0.966629	-0.0633039	2	-0.00601515	39	2.5496	6.11913e-05
2	0	0	1	1	27.7741	-0.977388	-0.97764	-0.0672695	2	-0.00602252	39	2.6596	6.57654e-05
2	0	0	1	1	27.8841	-0.988386	-0.988619	-0.0732439	2	-0.00603052	39	2.7696	7.24103e-05
2	0	0	1	1	27.9941	-0.999384	-0.999639	-0.082487	2	-0.00603932	39	2.8796	8.24573e-05
2	0	0	1	1	28.1041	-1.01038	-1.01066	-0.093514	2	-0.00604924	39	2.9896	9.45109e-05
2	0	0	1	1	28.2139	-1.02138	-1.02164	-0.111003	2	-0.00606067	39	3.0994	0.000113405
2	0	0	1	1	28.3239	-1.03238	-1.03264	-0.132137	2	-0.00607421	39	3.2094	0.000136449
2	0	0	1	1	28.4339	-1.04338	-1.04364	-0.163697	2	-0.00609068	39	3.3194	0.00017084
2	0	0	1	1	28.5439	-1.05438	-1.05461	-0.205163	2	-0.0061111	39	3.4294	0.000216367
2	0	0	1	1	28.6539	-1.06537	-1.06562	-0.278303	2	-0.00613736	39	3.5394	0.000296567
2	0	0	1	1	28.7639	-1.07637	-1.07662	-0.461389	2	-0.00617762	39	3.6494	0.000496742
2	0	0	1	1	28.8739	-1.08737	-1.08761	-0.595095	2	-0.00623723	39	3.7594	0.000647233
2	0	0	1	1	28.9839	-1.09837	-1.09862	-0.624198	2	-0.00630545	39	3.8694	0.000685754
2	0	0	1	1	29.0939	-1.10937	-1.1096	-0.596183	2	-0.00637318	39	3.9794	0.000661526
2	0	0	1	1	29.2039	-1.12036	-1.1206	-0.53421	2	-0.00643604	39	4.0894	0.000598638
2	0	0	1	1	29.3137	-1.13136	-1.13161	-0.476954	2	-0.00649187	39	4.1992	0.000539729
2	0	0	1	1	29.4237	-1.14236	-1.14263	-0.408485	2	-0.00654086	39	4.3092	0.000466747
2	0	0	1	1	29.5337	-1.15336	-1.15362	-0.369536	2	-0.00658375	39	4.4192	0.000426305
2	0	0	1	1	29.6437	-1.16436	-1.16462	-0.355621	2	-0.00662381	39	4.5292	0.000414164
2	0	0	1	1	29.7537	-1.17535	-1.1756	-0.339188	2	-0.00666232	39	4.6392	0.000398751
2	0	0	1	1	29.8637	-1.18635	-1.18663	-0.341188	2	-0.00669999	39	4.7492	0.000404864
2	0	0	1	1	29.9737	-1.19735	-1.19759	-0.350966	2	-0.00673839	39	4.8592	0.000420315
2	0	0	1	1	30.0837	-1.20835	-1.20859	-0.373537	2	-0.00677856	39	4.9692	0.000451452
2	0	0	1	1	30.1937	-1.21935	-1.2196	-0.408651	2	-0.00682166	39	5.0792	0.000498391
2	0	0	1	1	30.3037	-1.23035	-1.23062	-0.455166	2	-0.0068694	39	5.1892	0.000560135
2	0	0	1	1	30.4137	-1.24134	-1.24161	-0.524959	2	-0.00692356	39	5.2992	0.000651797
2	0	0	1	1	30.5235	-1.25234	-1.25258	-0.616449	2	-0.00698631	39	5.409	0.000772149
2	0	0	1	1	30.6335	-1.26334	-1.2636	-0.742708	2	-0.00706116	39	5.519	0.000938483
2	0	0	1	1	30.7435	-1.27434	-1.27461	-0.904891	2	-0.00715167	39	5.629	0.00115338
2	0	0	1	1	30.8535	-1.28534	-1.2856	-1.11322	2	-0.00726265	39	5.739	0.00143116
2	0	0	1	1	30.9635	-1.29633	-1.2966	-1.39304	2	-0.00740001	39	5.849	0.00180622
2	0	0	1	1	31.0735	-1.30733	-1.30758	-1.73497	2	-0.00757153	39	5.959	0.00226862
2	0	0	1	1	31.1835	-1.31833	-1.31861	-2.20467	2	-0.00778755	39	6.069	0.00290711
2	0	0	1	1	31.2935	-1.32933	-1.3296	-2.77739	2	-0.0080602	39	6.179	0.00369281
2	0	0	1	1	31.4035	-1.34033	-1.34058	-3.50575	2	-0.00840471	39	6.289	0.00469972
2	0	0	1	0	31.5004	-1.34997	-1.35022	-4.25148	2	-0.00878062	39	6.3859	0.00574045
2	0	0	1	0	31.6059	-1.33943	-1.33969	-3.58626	3	-0.00919461	39	6.4914	0.00480449
2	0	0	1	0	31.7159	-1.32843	-1.32869	-2.91404	3	-0.00955022	39	6.6014	0.00387186
2	0	0	1	0	31.8259	-1.31743	-1.3177	-2.33553	3	-0.00983716	39	6.7114	0.00307752
2	0	0	1	0	31.9359	-1.30643	-1.30671	-1.84265	3	-0.010066	39	6.8214	0.00240781
2	0	0	1	0	32.0459	-1.29543	-1.29569	-1.44937	3	-0.0102457	39	6.9314	0.00187794
2	0	0	1	0	32.1559	-1.28444	-1.2847	-1.13654	3	-0.0103871	39	7.0414	0.00146011
2	0	0	1	0	32.2659	-1.27344	-1.27371	-0.904547	3	-0.0104984	39	7.1514	0.00115213
2	0	0	1	0	32.3759	-1.26244	-1.26269	-0.723822	3	-0.0105868	39	7.2614	0.000913965
2	0	0	1	0	32.4859	-1.25144	-1.25172	-0.580743	3	-0.0106577	39	7.3714	0.000726928
2	0	0	1	0	32.5957	-1.24044	-1.24072	-0.478079	3	-0.0107151	39	7.4812	0.000593162
2	0	0	1	0	32.7057	-1.22945	-1.22972	-0.394823	3	-0.0107625	39	7.5912	0.000485521
2	0	0	1	0	32.8157	-1.21845	-1.21871	-0.334213	3	-0.0108022	39	7.7012	0.000407309
2	0	0	1	0	32.9257	-1.20745	-1.2077	-0.281713	3	-0.0108356	39	7.8112	0.000340225
2	0	0	1	0	33.0357	-1.19645	-1.19671	-0.240245	3	-0.0108639	39	7.9212	0.000287503
2	0	0	1	0	33.1457	-1.18545	-1.18569	-0.207756	3	-0.0108882	39	8.0312	0.000246335
2	0	0	1	0	33.2557	-1.17445	-1.17471	-0.17502	3	-0.0109088	39	8.1412	0.000205597
2	0	0	1	0	33.3657	-1.16346	-1.16372	-0.151759	3	-0.0109265	39	8.2512	0.000176604
2	0	0	1	0	33.4757	-1.15246	-1.15271	-0.127321	3	-0.0109414	39	8.3612	0.000146764
2	0	0	1	0	33.5857	-1.14146	-1.14171	-0.104145	3	-0.0109538	39	8.4712	0.000118903
2	0	0	1	0	33.6956	-1.13046	-1.13071	-0.0864354	3	-0.0109639	39	8.5811	9.77329e-05
2	0	0	1	0	33.8055	-1.11946	-1.11971	-0.0664896	3	-0.0109719	39	8.691	7.44489e-05
2	0	0	1	0	33.9155	-1.10847	-1.1087	-0.0520673	3	-0.010978	39	8.801	5.77268e-05
2	0	0	1	0	34.0255	-1.09747	-1.09773	-0.0378941	3	-0.0109825	39	8.911	4.15974e-05
2	0	0	1	0	34.1355	-1.08647	-1.08671	-0.0231109	3	-0.0109855	39	9.021	2.51149e-05
2	0	0	1	0	34.2455	-1.07547	-1.07572	-0.0133012	3	-0.0109871	39	9.131	1.43084e-05
2	0	0	1	0	34.3555	-1.06447	-1.06473	-4.76838e-05	3	-0.0109875	39	0.02	5.07704e-08
2	1	0	1	0	34.4655	-1.05348	-1.05373	0.00980472	3	-0.0109866	39	0.13	-1.03315e-05
2	1	0	1	0	34.5755	-1.04248	-1.04274	0.0269231	3	-0.0109841	39	0.24	-2.80738e-05
2	1	0	1	0	34.6855	-1.03148	-1.03172	0.0483225	3	-0.0109797	39	0.35	-4.98554e-05
2	1	0	1	0	34.7955	-1.02048	-1.02074	0.0741215	3	-0.0109727	39	0.46	-7.56587e-05
2	1	0	1	0	34.9053	-1.00948	-1.00972	0.108114	3	-0.0109623	39	0.5698	-0.000109165
2	1	0	1	0	35.0153	-0.998485	-0.998733	0.123426	3	-0.0109491	39	0.6798	-0.00012327
2	1	0	1	0	35.1253	-0.987486	-0.98774	0.1254	3	-0.0109348	39	0.7898	-0.000123863
2	1	0	1	0	35.2353	-0.976488	-0.976726	0.113938	3	-0.0109213	39	0.8998	-0.000111287
2	1	0	1	0	35.3453	-0.96549	-0.96575	0.108659	3	-0.0109088	39	1.0098	-0.000104937
2	1	0	1	0	35.4553	-0.954492	-0.954737	0.115861	3	-0.0108962	39	1.1198	-0.000110616
2	1	0	1	0	35.5653	-0.943494	-0.943748	0.124154	3	-0.0108827	39	1.2298	-0.00011717
2	1	0	1	0	35.6753	-0.932496	-0.932733	0.14126	3	-0.0108679	39	1.3398	-0.000131758
2	1	0	1	0	35.7853	-0.921497	-0.921781	0.161739	3	-0.0108509	39	1.4498	-0.000149088
2	1	0	1	0	35.8953	-0.910499	-0.910782	0.186306	3	-0.0108315	39	1.5598	-0.000169684
2	1	0	1	0	36.0053	-0.899501	-0.89977	0.21588	3	-0.0108091	39	1.6698	-0.000194242
2	1	0	1	0	36.1151	-0.888503	-0.888769	0.238291	3	-0.0107838	39	1.7796	-0.000211786
2	1	0	1	0	36.2251	-0.877505	-0.877782	0.256558	3	-0.0107563	39	1.8896	-0.000225202
2	1	0	1	0	36.3351	-0.866507	-0.866771	0.259852	3	-0.0107275	39	1.9996	-0.000225232
2	1	0	1	0	36.4451	-0.855509	-0.855782	0.251832	3	-0.010699	39	2.1096	-0.000215513
2	1	0	1	0	36.5551	-0.844511	-0.844782	0.24252	3	-0.0106715	39	2.2196	-0.000204876
2	1	0	1	0	36.6651	-0.833512	-0.833792	0.22787	3	-0.0106454	39	2.3296	-0.000189996
2	1	0	1	0	36.7751	-0.822514	-0.82279	0.217507	3	-0.0106207	39	2.4396	-0.000178963
2	1	0	1	0	36.8851	-0.811516	-0.811789	0.205117	3	-0.0105972	39	2.5496	-0.000166512
2	1	0	1	0	36.9951	-0.800518	-0.800785	0.193316	3	-0.010575	39	2.6596	-0.000154804
2	1	0	1	0	37.1051	-0.78952	-0.789787	0.184173	3	-0.010554	39	2.7696	-0.000145458
2	1	0	1	0	37.2151	-0.778522	-0.778792	0.173427	3	-0.0105341	39	2.8796	-0.000135064
2	1	0	1	0	37.3249	-0.767523	-0.767811	0.165572	3	-0.0105152	39	2.9894	-0.000127128
2	1	0	1	0	37.4349	-0.756525	-0.756805	0.157682	3	-0.0104973	39	3.0994	-0.000119334
2	1	0	1	0	37.5449	-0.745527	-0.745804	0.150505	3	-0.0104801	39	3.2094	-0.000112247
2	1	0	1	0	37.6549	-0.734529	-0.734809	0.14464	3	-0.0104637	39	3.3194	-0.000106283
2	1	0	1	0	37.7649	-0.723531	-0.723798	0.138159	3	-0.0104479	39	3.4294	-9.9999e-05
2	1	0	1	0	37.8749	-0.712533	-0.712812	0.134407	3	-0.0104327	39	3.5394	-9.58069e-05
2	1	0	1	0	37.9849	-0.701535	-0.701795	0.130714	3	-0.010418	39	3.6494	-9.17347e-05
2	1	0	1	0	38.0949	-0.690536	-0.690817	0.126346	3	-0.0104036	39	3.7594	-8.72821e-05
2	1	0	1	0	38.2049	-0.679538	-0.679837	0.124064	3	-0.0103897	39	3.8694	-8.4343e-05
2	1	0	1	0	38.3149	-0.66854	-0.668802	0.121034	3	-0.010376	39	3.9794	-8.09479e-05
2	1	0	1	0	38.4249	-0.657542	-0.65783	0.119579	3	-0.0103626	39	4.0894	-7.86629e-05
2	1	0	1	0	38.5347	-0.646544	-0.646818	0.118668	3	-0.0103493	39	4.1992	-7.67566e-05
2	1	0	1	0	38.6447	-0.635546	-0.635828	0.117514	3	-0.0103362	39	4.3092	-7.47187e-05
2	1	0	1	0	38.7547	-0.624548	-0.624809	0.117491	3	-0.0103231	39	4.4192	-7.34097e-05
2	1	0	1	0	38.8647	-0.613549	-0.613825	0.116236	3	-0.0103101	39	4.5292	-7.13489e-05
2	1	0	1	0	38.9747	-0.602551	-0.602815	0.116952	3	-0.010297	39	4.6392	-7.05008e-05
2	1	0	1	0	39.0847	-0.591553	-0.59181	0.117412	3	-0.010284	39	4.7492	-6.94856e-05
2	1	0	1	0	39.1947	-0.580555	-0.580836	0.117797	3	-0.0102709	39	4.8592	-6.84209e-05
2	1	0	1	0	39.3047	-0.569557	-0.569815	0.118986	3	-0.0102577	39	4.9692	-6.78003e-05
2	1	0	1	0	39.4147	-0.558559	-0.55883	0.118373	3	-0.0102445	39	5.0792	-6.61506e-05
2	1	0	1	0	39.5247	-0.54756	-0.547831	0.119104	3	-0.0102312	39	5.1892	-6.5249e-05
2	1	0	1	0	39.6346	-0.536558	-0.536832	0.11905	3	-0.010218	39	5.2991	-6.39099e-05
2	1	0	1	0	39.7445	-0.525564	-0.525862	0.117713	3	-0.0102048	39	5.409	-6.19007e-05
2	1	0	1	0	39.8545	-0.514566	-0.514837	0.117581	3	-0.0101917	39	5.519	-6.05351e-05
2	1	0	1	0	39.9645	-0.503568	-0.503839	0.115055	3	-0.0101788	39	5.629	-5.79691e-05
2	1	0	1	0	40.0745	-0.49257	-0.492821	0.113242	3	-0.0101661	39	5.739	-5.5808e-05
2	1	0	1	0	40.1845	-0.481572	-0.481836	0.110944	3	-0.0101536	39	5.849	-5.34569e-05
2	1	0	1	0	40.2945	-0.470573	-0.470837	0.107727	3	-0.0101414	39	5.959	-5.07218e-05
2	1	0	1	0	40.4045	-0.459575	-0.459845	0.105992	3	-0.0101295	39	6.069	-4.87398e-05
2	1	0	1	0	40.5145	-0.448577	-0.44886	0.103046	3	-0.0101179	39	6.179	-4.62532e-05
2	1	0	1	0	40.6245	-0.437579	-0.437832	0.100651	3	-0.0101065	39	6.289	-4.40681e-05
2	1	0	1	0	40.7345	-0.426581	-0.426855	0.0985848	3	-0.0100954	39	6.399	-4.20815e-05
2	1	0	1	0	40.8443	-0.415583	-0.41586	0.0954558	3	-0.0100847	39	6.5088	-3.96962e-05
2	1	0	1	0	40.9543	-0.404585	-0.404856	0.0940715	3	-0.0100741	39	6.6188	-3.80854e-05
2	1	0	1	0	41.0643	-0.393586	-0.393845	0.0917868	3	-0.0100637	39	6.7288	-3.61497e-05
2	1	0	1	0	41.1743	-0.382588	-0.382846	0.0907084	3	-0.0100536	39	6.8388	-3.47273e-05
2	1	0	1	0	41.2843	-0.37159	-0.371857	0.0885141	3	-0.0100436	39	6.9488	-3.29146e-05
2	1	0	1	0	41.3943	-0.360592	-0.36085	0.0861511	3	-0.0100339	39	7.0588	-3.10876e-05
2	1	0	1	0	41.5043	-0.349594	-0.349829	0.0854067	3	-0.0100244	39	7.1688	-2.98778e-05
2	1	0	1	0	41.6143	-0.338596	-0.338855	0.0831595	3	-0.010015	39	7.2788	-2.8179e-05
2	1	0	1	0	41.7243	-0.327598	-0.327846	0.0822843	3	-0.0100057	39	7.3888	-2.69766e-05
2	1	0	1	0	41.8343	-0.316599	-0.316852	0.0810672	3	-0.00999664	39	7.4988	-2.56863e-05
2	1	0	1	0	41.9443	-0.305601	-0.305855	0.079446	3	-0.00998769	39	7.6088	-2.4299e-05
2	1	0	1	0	42.0357	-0.303502	-0.30376	0.0723754	3	-0.00998058	39	7.7002	-2.19847e-05
2	1	0	1	0	42.1457	-0.3145	-0.314742	0.0626703	3	-0.0099733	39	7.8102	-1.9725e-05
2	1	0	1	0	42.2557	-0.325498	-0.325741	0.056043	3	-0.0099669	39	7.9202	-1.82555e-05
2	1	0	1	0	42.3657	-0.336496	-0.336764	0.0501944	3	-0.00996121	39	8.0302	-1.69037e-05
2	1	0	1	0	42.4757	-0.347494	-0.347737	0.0452215	3	-0.0099561	39	8.1402	-1.57252e-05
2	1	0	1	0	42.5857	-0.358492	-0.358738	0.0412425	3	-0.00995147	39	8.2502	-1.47952e-05
2	1	0	1	0	42.6957	-0.36949	-0.369722	0.0372686	3	-0.00994726	39	8.3602	-1.3779e-05
2	1	0	1	0	42.8057	-0.380489	-0.380754	0.034685	3	-0.00994344	39	8.4702	-1.32064e-05
2	1	0	1	0	42.9157	-0.391487	-0.391723	0.0318777	3	-0.00993992	39	8.5802	-1.24872e-05
2	1	0	1	0	43.0257	-0.402485	-0.402731	0.0296694	3	-0.00993667	39	8.6902	-1.19488e-05
2	1	0	1	0	43.1357	-0.413483	-0.413735	0.0278197	3	-0.00993367	39	8.8002	-1.151e-05
2	1	0	1	0	43.2455	-0.424481	-0.42474	0.0250128	3	-0.00993091	39	8.91	-1.06239e-05
2	1	0	1	0	43.3555	-0.435479	-0.435732	0.0239315	3	-0.00992833	39	9.02	-1.04277e-05
2	1	0	1	0	43.4655	-0.446477	-0.446714	0.0220972	3	-0.00992594	39	9.13	-9.87115e-06
2	1	0	1	0	43.5755	-0.457476	-0.457726	0.0206643	3	-0.00992372	39	9.24	-9.45859e-06
2	1	0	1	0	43.6855	-0.468474	-0.468729	0.0195539	3	-0.00992164	39	9.35	-9.16547e-06
2	1	0	1	0	43.7955	-0.479472	-0.479719	0.0180085	3	-0.00991971	39	9.46	-8.63904e-06
2	1	0	1	0	43.9055	-0.49047	-0.490719	0.0172662	3	-0.0099179	39	9.57	-8.47286e-06
2	1	0	1	0	44.0155	-0.501468	-0.501725	0.0161339	3	-0.00991622	39	9.68	-8.09477e-06
2	1	0	1	0	44.1255	-0.512466	-0.512729	0.0149981	3	-0.00991465	39	9.79	-7.68998e-06
2	1	0	1	0	44.2355	-0.523465	-0.523715	0.0143754	3	-0.00991319	39	9.9	-7.52861e-06
2	1	0	1	0	44.3455	-0.534463	-0.534716	0.012924	3	-0.00991183	39	10.01	-6.91067e-06
2	1	0	1	0	44.4553	-0.545461	-0.54572	0.0127131	3	-0.00991056	39	10.1198	-6.93777e-06
2	1	0	1	0	44.5653	-0.556459	-0.556704	0.0111393	3	-0.0099094	39	10.2298	-6.20131e-06
2	1	0	1	0	44.6753	-0.567457	-0.567722	0.0107175	3	-0.0099083	39	10.3398	-6.08459e-06
2	1	0	1	0	44.7853	-0.578455	-0.578715	0.0104846	3	-0.0099073	39	10.4498	-6.06758e-06
2	1	0	1	0	44.8953	-0.589453	-0.589718	0.0090633	3	-0.00990637	39	10.5598	-5.3448e-06
2	1	0	1	0	45.0053	-0.600452	-0.600698	0.00909482	3	-0.00990552	39	10.6698	-5.46324e-06
2	1	0	1	0	45.1153	-0.61145	-0.611706	0.00818639	3	-0.00990474	39	10.7798	-5.00767e-06
2	1	0	1	0	45.2253	-0.622448	-0.622706	0.00720827	3	-0.00990404	39	10.8898	-4.48863e-06
2	1	0	1	0	45.3353	-0.633446	-0.633705	0.00714546	3	-0.00990341	39	10.9998	-4.52812e-06
2	1	0	1	0	45.4453	-0.644444	-0.644718	0.00582676	3	-0.00990286	39	11.1098	-3.75662e-06
2	1	0	1	0	45.5552	-0.655445	-0.655697	0.0059162	3	-0.00990239	39	11.2197	-3.87924e-06
2	1	0	1	0	45.6651	-0.66644	-0.666665	0.00440188	3	-0.00990198	39	11.3296	-2.93458e-06
2	1	0	1	0	45.7751	-0.677439	-0.677692	0.00382368	3	-0.00990167	39	11.4396	-2.59128e-06
2	1	0	1	0	45.8851	-0.688437	-0.688695	0.00319524	3	-0.00990144	39	11.5496	-2.20055e-06
2	1	0	1	0	45.9951	-0.699435	-0.699694	0.00192537	3	-0.00990132	39	11.6596	-1.34717e-06
2	1	0	1	0	46.1051	-0.710433	-0.710687	0.00188295	3	-0.00990131	39	0.03	-1.33819e-06
2	0	0	1	0	46.2151	-0.721431	-0.721714	-0.000597696	3	-0.00990144	39	0.14	4.31365e-07
2	0	0	1	0	46.3251	-0.732429	-0.732696	-0.00147834	3	-0.00990174	39	0.25	1.08317e-06
2	0	0	1	0	46.4351	-0.743427	-0.743676	-0.00378014	3	-0.00990222	39	0.36	2.8112e-06
2	0	0	1	0	46.5451	-0.754426	-0.754678	-0.00631649	3	-0.00990294	39	0.47	4.76692e-06
2	0	0	1	0	46.6551	-0.765424	-0.765674	-0.00783035	3	-0.00990395	39	0.58	5.9955e-06
2	0	0	1	0	46.7649	-0.776422	-0.77666	-0.0127977	3	-0.00990529	39	0.6898	9.93949e-06
2	0	0	1	0	46.8749	-0.78742	-0.787658	-0.015933	3	-0.00990705	39	0.7998	1.25498e-05
2	0	0	1	0	46.9849	-0.798418	-0.798688	-0.0206957	3	-0.00990928	39	0.9098	1.65294e-05
2	0	0	1	0	47.0949	-0.809416	-0.809652	-0.0263615	3	-0.00991205	39	1.0198	2.13436e-05
2	0	0	1	0	47.2049	-0.820415	-0.820664	-0.030096	3	-0.00991536	39	1.1298	2.46987e-05
2	0	0	1	0	47.3149	-0.831413	-0.831665	-0.0362655	3	-0.00991924	39	1.2398	3.01608e-05
2	0	0	1	0	47.4249	-0.842411	-0.842665	-0.0394702	3	-0.00992362	39	1.3498	3.32602e-05
2	0	0	1	0	47.5349	-0.853409	-0.853656	-0.043418	3	-0.00992845	39	1.4598	3.7064e-05
2	0	0	1	0	47.6449	-0.864407	-0.864641	-0.04685	3	-0.00993362	39	1.5698	4.05084e-05
2	0	0	1	0	47.7549	-0.875405	-0.875646	-0.0471082	3	-0.00993902	39	1.6798	4.12501e-05
2	0	0	1	0	47.8649	-0.886404	-0.886659	-0.0495546	3	-0.00994459	39	1.7898	4.3938e-05
2	0	0	1	0	47.9747	-0.897402	-0.897642	-0.0495076	3	-0.00995024	39	1.8996	4.44401e-05
2	0	0	1	0	48.0847	-0.9084	-0.908662	-0.0501211	3	-0.00995596	39	2.0096	4.55431e-05
2	0	0	1	0	48.1947	-0.919398	-0.919652	-0.0506081	3	-0.00996172	39	2.1196	4.65418e-05
2	0	0	1	0	48.3047	-0.930396	-0.930612	-0.0507475	3	-0.00996756	39	2.2296	4.72263e-05
2	0	0	1	0	48.4147	-0.941394	-0.941628	-0.05325	3	-0.00997349	39	2.3396	5.01417e-05
2	0	0	1	0	48.5247	-0.952392	-0.952618	-0.053344	3	-0.00997957	39	2.4496	5.08165e-05
2	0	0	1	0	48.6347	-0.96339	-0.963618	-0.055955	3	-0.00998586	39	2.5596	5.39193e-05
2	0	0	1	0	48.7447	-0.974389	-0.974621	-0.0593192	3	-0.00999244	39	2.6696	5.78138e-05
2	0	0	1	0	48.8547	-0.985387	-0.985622	-0.0628855	3	-0.00999941	39	2.7796	6.19814e-05
2	0	0	1	0	48.9647	-0.996385	-0.996634	-0.0700584	3	-0.0100069	39	2.8896	6.98226e-05
2	0	0	1	0	49.0747	-1.00738	-1.00761	-0.075969	3	-0.0100152	39	2.9996	7.65475e-05
2	0	0	1	0	49.1845	-1.01838	-1.01862	-0.0873943	3	-0.0100244	39	3.1094	8.90215e-05
2	0	0	1	0	49.2945	-1.02938	-1.02964	-0.101842	3	-0.010035	39	3.2194	0.00010486
2	0	0	1	0	49.4045	-1.04038	-1.04066	-0.120158	3	-0.0100475	39	3.3294	0.000125043
2	0	0	1	0	49.5145	-1.05138	-1.05163	-0.149033	3	-0.0100625	39	3.4394	0.000156728
2	0	0	1	0	49.6245	-1.06237	-1.06262	-0.198546	3	-0.0100814	39	3.5494	0.000210979
2	0	0	1	0	49.7345	-1.07337	-1.07363	-0.327921	3	-0.01011	39	3.6594	0.000352066
2	0	0	1	0	49.8445	-1.08437	-1.08461	-0.433368	3	-0.0101528	39	3.7694	0.000470038
2	0	0	1	0	49.9545	-1.09537	-1.09562	-0.489478	3	-0.0102045	39	3.8794	0.000536283
2	0	0	1	0	50.0645	-1.10637	-1.10662	-0.497063	3	-0.0102597	39	3.9894	0.000550058
2	0	0	1	0	50.1745	-1.11736	-1.11763	-0.459782	3	-0.0103123	39	4.0994	0.000513864
2	0	0	1	0	50.2845	-1.12836	-1.12863	-0.431647	3	-0.010362	39	4.2094	0.00048717
2	0	0	1	0	50.3943	-1.13936	-1.13962	-0.399124	3	-0.0104078	39	4.3192	0.000454849
2	0	0	1	0	50.5043	-1.15036	-1.15062	-0.374395	3	-0.0104507	39	4.4292	0.000430784
2	0	0	1	0	50.6143	-1.16136	-1.16162	-0.353099	3	-0.0104909	39	4.5392	0.000410166
2	0	0	1	0	50.7243	-1.17236	-1.17263	-0.336887	3	-0.010529	39	4.6492	0.000395045
2	0	0	1	0	50.8343	-1.18335	-1.18361	-0.326833	3	-0.0105658	39	4.7592	0.000386845
2	0	0	1	0	50.9443	-1.19435	-1.19462	-0.329858	3	-0.0106021	39	4.8692	0.000394054
2	0	0	1	0	51.0543	-1.20535	-1.20561	-0.344359	3	-0.0106394	39	4.9792	0.000415162
2	0	0	1	0	51.1643	-1.21635	-1.2166	-0.374352	3	-0.0106792	39	5.0892	0.000455438
2	0	0	1	0	51.2743	-1.22735	-1.22761	-0.413506	3	-0.0107228	39	5.1992	0.000507625
2	0	0	1	0	51.3843	-1.23834	-1.23862	-0.472912	3	-0.0107717	39	5.3092	0.000585757
2	0	0	1	0	51.4942	-1.24935	-1.24963	-0.549673	3	-0.010828	39	5.4191	0.000686886
2	0	0	1	0	51.6041	-1.26034	-1.2606	-0.65388	3	-0.0108943	39	5.529	0.000824284
2	0	0	1	0	51.7141	-1.27134	-1.27162	-0.791478	3	-0.0109738	39	5.639	0.00100646
2	0	0	1	0	51.8241	-1.28234	-1.2826	-0.957642	3	-0.0110699	39	5.749	0.00122827
2	0	0	1	0	51.9341	-1.29333	-1.2936	-1.17124	3	-0.0111871	39	5.859	0.0015151
2	0	0	1	0	52.0441	-1.30433	-1.3046	-1.43272	3	-0.0113302	39	5.969	0.00186913
2	0	0	1	0	52.1541	-1.31533	-1.31559	-1.75634	3	-0.0115059	39	6.079	0.00231062
2	0	0	1	0	52.2641	-1.32633	-1.32659	-2.15951	3	-0.0117216	39	6.189	0.0028648
2	0	0	1	0	52.3741	-1.33733	-1.3376	-2.65923	3	-0.0119866	39	6.299	0.00355698
2	0	0	1	0	52.4841	-1.34833	-1.34862	-3.27958	3	-0.0123129	39	6.409	0.00442293
2	0	0	1	1	52.5765	-1.34243	-1.3427	-3.00533	3	-0.0126104	39	6.5014	0.00403526
2	0	0	1	1	52.6865	-1.33143	-1.33171	-2.45658	3	-0.01291	39	6.6114	0.00327146
2	0	0	1	1	52.7965	-1.32043	-1.32069	-1.97422	3	-0.0131524	39	6.7214	0.00260733
2	0	0	1	1	52.9065	-1.30943	-1.30972	-1.60002	3	-0.0133481	39	6.8314	0.00209559
2	0	0	1	1	53.0165	-1.29843	-1.29869	-1.27141	3	-0.0135047	39	6.9414	0.00165116
2	0	0	1	1	53.1265	-1.28744	-1.28771	-1.0327	3	-0.0136339	39	7.0514	0.00132981
2	0	0	1	1	53.2365	-1.27644	-1.27671	-0.826867	3	-0.0137354	39	7.1614	0.00105567
2	0	0	1	1	53.3465	-1.26544	-1.26569	-0.667761	3	-0.0138168	39	7.2714	0.000845181
2	0	0	1	1	53.4565	-1.25444	-1.25471	-0.544132	3	-0.013883	39	7.3814	0.000682728
2	0	0	1	1	53.5663	-1.24344	-1.24372	-0.445539	3	-0.0139368	39	7.4912	0.000554128
2	0	0	1	1	53.6763	-1.23245	-1.23273	-0.370698	3	-0.0139812	39	7.6012	0.000456969
2	0	0	1	1	53.7863	-1.22145	-1.22171	-0.309912	3	-0.0140182	39	7.7112	0.000378623
2	0	0	1	1	53.8963	-1.21045	-1.2107	-0.263394	3	-0.0140493	39	7.8212	0.000318892
2	0	0	1	1	54.0063	-1.19945	-1.1997	-0.224062	3	-0.0140758	39	7.9312	0.000268806
2	0	0	1	1	54.1163	-1.18845	-1.18871	-0.192634	3	-0.0140984	39	8.0412	0.000228986
2	0	0	1	1	54.2263	-1.17745	-1.17772	-0.163319	3	-0.0141176	39	8.1512	0.000192344
2	0	0	1	1	54.3363	-1.16646	-1.16673	-0.138463	3	-0.0141338	39	8.2612	0.000161549
2	0	0	1	1	54.4463	-1.15546	-1.1557	-0.116622	3	-0.0141474	39	8.3712	0.000134781
2	0	0	1	1	54.5563	-1.14446	-1.14471	-0.0951635	3	-0.0141587	39	8.4812	0.000108935
2	0	0	1	1	54.6663	-1.13346	-1.13373	-0.0789417	3	-0.0141679	39	8.5912	8.94982e-05
2	0	0	1	1	54.7761	-1.12246	-1.12272	-0.0611969	3	-0.0141752	39	8.701	6.87072e-05
2	0	0	1	1	54.8861	-1.11147	-1.11174	-0.0465497	3	-0.0141808	39	8.811	5.1751e-05
2	0	0	1	1	54.9961	-1.10047	-1.10073	-0.0342527	3	-0.0141849	39	8.921	3.77028e-05
2	0	0	1	1	55.1061	-1.08947	-1.08975	-0.0200071	3	-0.0141875	39	9.031	2.18028e-05
2	0	0	1	1	55.2161	-1.07847	-1.07874	-0.011496	3	-0.0141889	39	9.141	1.24012e-05
2	0	0	1	1	55.3261	-1.06747	-1.06773	0.000225183	3	-0.0141892	39	0.02	-2.40435e-07
2	1	0	1	1	55.4361	-1.05647	-1.05674	0.00981931	3	-0.0141883	39	0.13	-1.03764e-05
2	1	0	1	1	55.5461	-1.04548	-1.04578	0.0207483	3	-0.0141863	39	0.24	-2.16981e-05
2	1	0	1	1	55.6561	-1.03448	-1.03476	0.0381978	3	-0.0141828	39	0.35	-3.95257e-05
2	1	0	1	1	55.7661	-1.02348	-1.02374	0.0565889	3	-0.0141773	39	0.46	-5.79325e-05
2	1	0	1	1	55.8761	-1.01248	-1.01275	0.0853751	3	-0.0141692	39	0.57	-8.64638e-05
2	1	0	1	1	55.9859	-1.00148	-1.00174	0.104008	3	-0.0141583	39	0.6798	-0.000104189
2	1	0	1	1	56.0959	-0.990486	-0.990753	0.10775	3	-0.0141461	39	0.7898	-0.000106754
2	1	0	1	1	56.2059	-0.979488	-0.979775	0.100072	3	-0.0141343	39	0.8998	-9.80481e-05
2	1	0	1	1	56.3159	-0.96849	-0.968742	0.0921321	3	-0.0141235	39	1.0098	-8.92521e-05
2	1	0	1	1	56.4259	-0.957491	-0.957759	0.0976404	3	-0.0141128	39	1.1198	-9.3516e-05
2	1	0	1	1	56.5359	-0.946493	-0.946757	0.104955	3	-0.0141015	39	1.2298	-9.93669e-05
2	1	0	1	1	56.6459	-0.935495	-0.935762	0.117904	3	-0.014089	39	1.3398	-0.00011033
2	1	0	1	1	56.7559	-0.924497	-0.924765	0.137711	3	-0.0140747	39	1.4498	-0.000127351
2	1	0	1	1	56.8659	-0.913499	-0.913757	0.159192	3	-0.0140581	39	1.5598	-0.000145463
2	1	0	1	1	56.9759	-0.902501	-0.902761	0.186398	3	-0.0140388	39	1.6698	-0.000168273
2	1	0	1	1	57.0857	-0.891503	-0.891753	0.211486	3	-0.0140167	39	1.7796	-0.000188593
2	1	0	1	1	57.1957	-0.880504	-0.880746	0.232375	3	-0.013992	39	1.8896	-0.000204663
2	1	0	1	1	57.3057	-0.869506	-0.869746	0.243813	3	-0.0139655	39	1.9996	-0.000212055
2	1	0	1	1	57.4157	-0.858508	-0.858768	0.241211	3	-0.0139384	39	2.1096	-0.000207144
2	1	0	1	1	57.5257	-0.84751	-0.847771	0.234401	3	-0.0139119	39	2.2196	-0.000198718
2	1	0	1	1	57.6357	-0.836512	-0.836779	0.221723	3	-0.0138866	39	2.3296	-0.000185533
2	1	0	1	1	57.7457	-0.825514	-0.825762	0.210138	3	-0.0138626	39	2.4396	-0.000173524
2	1	0	1	1	57.8557	-0.814515	-0.814777	0.198603	3	-0.0138399	39	2.5496	-0.000161817
2	1	0	1	1	57.9657	-0.803517	-0.803765	0.185473	3	-0.0138185	39	2.6596	-0.000149077
2	1	0	1	1	58.0757	-0.792519	-0.792769	0.175912	3	-0.0137984	39	2.7696	-0.000139458
2	1	0	1	1	58.1857	-0.781521	-0.781782	0.165325	3	-0.0137795	39	2.8796	-0.000129248
2	1	0	1	1	58.2955	-0.770523	-0.77077	0.155723	3	-0.0137616	39	2.9894	-0.000120027
2	1	0	1	1	58.4055	-0.759525	-0.759783	0.147976	3	-0.0137447	39	3.0994	-0.00011243
2	1	0	1	1	58.5155	-0.748527	-0.748769	0.139582	3	-0.0137287	39	3.2094	-0.000104515
2	1	0	1	1	58.6255	-0.737528	-0.737778	0.133916	3	-0.0137135	39	3.3194	-9.88001e-05
2	1	0	1	1	58.7355	-0.72653	-0.726784	0.127616	3	-0.0136989	39	3.4294	-9.27495e-05
2	1	0	1	1	58.8455	-0.715532	-0.715799	0.122021	3	-0.013685	39	3.5394	-8.73425e-05
2	1	0	1	1	58.9555	-0.704534	-0.704804	0.118055	3	-0.0136716	39	3.6494	-8.32056e-05
2	1	0	1	1	59.0655	-0.693536	-0.693802	0.113047	3	-0.0136586	39	3.7594	-7.84323e-05
2	1	0	1	1	59.1755	-0.682538	-0.682809	0.110925	3	-0.0136461	39	3.8694	-7.57403e-05
2	1	0	1	1	59.2855	-0.67154	-0.6718	0.108249	3	-0.0136339	39	3.9794	-7.27215e-05
2	1	0	1	1	59.3955	-0.660541	-0.660797	0.105447	3	-0.013622	39	4.0894	-6.96792e-05
2	1	0	1	1	59.5053	-0.649543	-0.649802	0.104082	3	-0.0136103	39	4.1992	-6.76327e-05
2	1	0	1	1	59.6153	-0.638545	-0.638819	0.102151	3	-0.0135988	39	4.3092	-6.52559e-05
2	1	0	1	1	59.7253	-0.627547	-0.627816	0.101628	3	-0.0135874	39	4.4192	-6.38038e-05
2	1	0	1	1	59.8353	-0.616549	-0.616778	0.100824	3	-0.0135761	39	4.5292	-6.21861e-05
2	1	0	1	1	59.9453	-0.605551	-0.605793	0.100486	3	-0.0135649	39	4.6392	-6.08734e-05
2	1	0	1	1	60.0553	-0.594553	-0.594796	0.101235	3	-0.0135536	39	4.7492	-6.02144e-05
2	1	0	1	1	60.1653	-0.583554	-0.58381	0.100614	3	-0.0135424	39	4.8592	-5.87393e-05
2	1	0	1	1	60.2753	-0.572556	-0.572808	0.101337	3	-0.0135311	39	4.9692	-5.80465e-05
2	1	0	1	1	60.3853	-0.561558	-0.561819	0.101628	3	-0.0135198	39	5.0792	-5.70963e-05
2	1	0	1	1	60.4953	-0.55056	-0.550834	0.101593	3	-0.0135084	39	5.1892	-5.59611e-05
2	1	0	1	1	60.6053	-0.539562	-0.539833	0.102039	3	-0.0134971	39	5.2992	-5.50843e-05
2	1	0	1	1	60.7151	-0.528564	-0.528849	0.100768	3	-0.0134858	39	5.409	-5.32911e-05
2	1	0	1	1	60.8251	-0.517566	-0.517817	0.100364	3	-0.0134745	39	5.519	-5.19702e-05
2	1	0	1	1	60.911	-0.508917	-0.509166	0.101338	3	-0.0134658	39	5.6049	-5.15979e-05