File: Fig 2/Fig 2_np-Fe3O4_25mvs.mpt
mode	ox/red	error	control changes	counter inc.	time/s	control/V	Ewe/V	<I>/mA	cycle number	(Q-Qo)/C	I Range	step time/s	P/W
2	1	1	0	0	0.000000000000000E+000	-0.30003	-0.299857	0.62221	1	0.0000000E+000	39	0.000000000000000E+000	-0.000186574
2	1	0	1	0	0.5022	-0.312581	-0.312384	0.0114222	1	1.49332e-05	39	0.4801	-3.56813e-06
2	1	0	1	0	1.0222	-0.325583	-0.325385	0.00755618	1	1.92657e-05	39	1.0001	-2.45867e-06
2	1	0	1	0	1.5422	-0.338584	-0.338396	0.00584035	1	2.23372e-05	39	1.5201	-1.97635e-06
2	1	0	0	0	2.0624	-0.351586	-0.351405	0.00498267	1	2.47636e-05	39	2.0403	-1.75094e-06
2	1	0	0	0	2.5824	-0.364587	-0.364387	0.00424445	1	2.67267e-05	39	2.5603	-1.54662e-06
2	1	0	0	0	3.1024	-0.377589	-0.377387	0.00362521	1	2.83528e-05	39	3.0803	-1.36811e-06
2	1	0	1	0	3.6226	-0.39059	-0.390375	0.00305035	1	2.9694e-05	39	3.6005	-1.19078e-06
2	1	0	1	0	4.1426	-0.403592	-0.403388	0.00263391	1	3.07936e-05	39	4.1205	-1.06249e-06
2	1	0	1	0	4.6626	-0.416594	-0.416394	0.00244977	1	3.17106e-05	39	4.6405	-1.02007e-06
2	1	0	0	0	5.1828	-0.429595	-0.429387	0.00210273	1	3.24592e-05	39	5.1607	-9.02884e-07
2	1	0	0	0	5.7028	-0.442597	-0.442401	0.00183383	1	3.30745e-05	39	5.6807	-8.11289e-07
2	1	0	0	0	6.2228	-0.455598	-0.455397	0.0015621	1	3.35659e-05	39	6.2007	-7.11378e-07
2	1	0	0	0	6.7428	-0.4686	-0.468387	0.00145233	1	3.39415e-05	39	6.7207	-6.8025e-07
2	1	0	1	0	7.263	-0.481601	-0.481408	0.0013213	1	3.42177e-05	39	7.2409	-6.36085e-07
2	1	0	1	0	7.783	-0.494603	-0.494411	0.00120019	1	3.4392e-05	39	7.7609	-5.93388e-07
2	1	0	1	0	8.303	-0.507604	-0.507413	0.000901314	1	3.44575e-05	39	0.000000000000000E+000	-4.57339e-07
2	0	0	0	0	8.8232	-0.520606	-0.520416	0.000724018	1	3.44347e-05	39	0.28	-3.7679e-07
2	0	0	0	0	9.3432	-0.533607	-0.533401	0.000643514	1	3.4316e-05	39	0.8	-3.43251e-07
2	1	0	0	0	9.8632	-0.546609	-0.546397	0.0004962	1	3.40993e-05	39	1.32	-2.71122e-07
2	1	0	1	0	10.3834	-0.55961	-0.5594	0.000217389	1	3.3786e-05	39	1.8402	-1.21607e-07
2	0	0	1	0	10.9034	-0.572612	-0.572409	0.000122485	1	3.33784e-05	39	2.3602	-7.01113e-08
2	1	0	1	0	11.4234	-0.585614	-0.585394	-0.00016695	1	3.28513e-05	39	2.8802	9.77315e-08
2	1	0	0	0	11.9436	-0.598615	-0.598387	-0.00036148	1	3.22094e-05	39	3.4004	2.16305e-07
2	0	0	0	0	12.4636	-0.611617	-0.611398	-0.000511155	1	3.14749e-05	39	3.9204	3.12519e-07
2	0	0	0	0	12.9836	-0.624618	-0.624403	-0.000729294	1	3.06196e-05	39	4.4404	4.55373e-07
2	0	0	0	0	13.5036	-0.63762	-0.637418	-0.000851347	1	2.96437e-05	39	4.9604	5.42664e-07
2	0	0	1	0	14.0238	-0.650621	-0.650415	-0.00113606	1	2.85229e-05	39	5.4806	7.3891e-07
2	0	0	1	0	14.5438	-0.663623	-0.663412	-0.00158154	1	2.72491e-05	39	6.0006	1.04922e-06
2	0	0	1	0	15.0638	-0.676624	-0.676429	-0.00190686	1	2.58066e-05	39	6.5206	1.28986e-06
2	0	0	0	0	15.584	-0.689626	-0.689439	-0.00236061	1	2.41823e-05	39	7.0408	1.6275e-06
2	0	0	0	0	16.104	-0.702627	-0.702428	-0.00253814	1	2.23648e-05	39	7.5608	1.78286e-06
2	0	0	0	0	16.624	-0.715629	-0.715431	-0.00293594	1	2.03198e-05	39	8.0808	2.10046e-06
2	0	0	1	0	17.1442	-0.72863	-0.72844	-0.00354007	1	1.80118e-05	39	8.601	2.57873e-06
2	0	0	1	0	17.6642	-0.741632	-0.741445	-0.00425516	1	1.54273e-05	39	9.121	3.15496e-06
2	0	0	1	0	18.1842	-0.754633	-0.754419	-0.0046572	1	1.25221e-05	39	9.641	3.51348e-06
2	0	0	1	0	18.7043	-0.767633	-0.767431	-0.00539728	1	9.2495e-06	39	10.1611	4.14204e-06
2	0	0	0	0	19.2244	-0.780636	-0.780411	-0.0062158	1	5.56679e-06	39	10.6812	4.85088e-06
2	0	0	0	0	19.7444	-0.793638	-0.793424	-0.00739503	1	1.41065e-06	39	11.2012	5.86739e-06
2	0	0	0	0	20.2644	-0.80664	-0.806432	-0.00825861	1	-3.25232e-06	39	11.7212	6.66e-06
2	0	0	1	0	20.7846	-0.819641	-0.81943	-0.00910779	1	-8.45605e-06	39	12.2414	7.46319e-06
2	0	0	1	0	21.3046	-0.832643	-0.832452	-0.0103661	1	-1.4225e-05	39	12.7614	8.62928e-06
2	0	0	1	0	21.8246	-0.845644	-0.845446	-0.0114613	1	-2.05489e-05	39	13.2814	9.68989e-06
2	0	0	0	0	22.3448	-0.858646	-0.858451	-0.0124471	1	-2.73831e-05	39	13.8016	1.06853e-05
2	0	0	0	0	22.8648	-0.871647	-0.871453	-0.0131089	1	-3.47159e-05	39	14.3216	1.14238e-05
2	0	0	0	0	23.3848	-0.884649	-0.884454	-0.0141632	1	-4.25164e-05	39	14.8416	1.25267e-05
2	0	0	1	0	23.905	-0.89765	-0.89746	-0.0152206	1	-5.08255e-05	39	15.3618	1.36599e-05
2	0	0	1	0	24.425	-0.910652	-0.910457	-0.0162974	1	-5.96582e-05	39	15.8818	1.48381e-05
2	0	0	1	0	24.945	-0.923653	-0.923455	-0.0172573	1	-6.91085e-05	39	16.4018	1.59363e-05
2	0	0	1	0	25.4651	-0.936655	-0.936454	-0.0185737	1	-7.91496e-05	39	16.9219	1.73934e-05
2	0	0	0	0	25.9852	-0.949656	-0.949468	-0.0196434	1	-8.97868e-05	39	17.442	1.86507e-05
2	0	0	0	0	26.5052	-0.962658	-0.962447	-0.0208183	1	-0.000100981	39	17.962	2.00365e-05
2	0	0	0	0	27.0252	-0.975659	-0.97543	-0.0214595	1	-0.000112696	39	18.482	2.09323e-05
2	0	0	1	0	27.5454	-0.988661	-0.98846	-0.0222579	1	-0.000124825	39	19.0022	2.20011e-05
2	0	0	1	0	28.0654	-1.00166	-1.00145	-0.0227313	1	-0.000137229	39	19.5222	2.27643e-05
2	0	0	1	0	28.5854	-1.01466	-1.01448	-0.0231905	1	-0.000149873	39	20.0422	2.35262e-05
2	0	0	0	0	29.1056	-1.02767	-1.02746	-0.0231177	1	-0.000162644	39	20.5624	2.37527e-05
2	0	0	0	0	29.6256	-1.04067	-1.04047	-0.0234494	1	-0.00017551	39	21.0824	2.43983e-05
2	0	0	0	0	30.1456	-1.05367	-1.05348	-0.0238243	1	-0.00018855	39	21.6024	2.50986e-05
2	0	0	1	0	30.6658	-1.06667	-1.06649	-0.0244124	1	-0.00020183	39	22.1226	2.60355e-05
2	0	0	1	0	31.1858	-1.07967	-1.07946	-0.0254519	1	-0.000215487	39	22.6426	2.74743e-05
2	0	0	1	0	31.7058	-1.09267	-1.09248	-0.0269767	1	-0.000229839	39	23.1626	2.94714e-05
2	0	0	1	0	32.2259	-1.10568	-1.10548	-0.0298784	1	-0.000245355	39	23.6827	3.303e-05
2	0	0	0	0	32.746	-1.11868	-1.11849	-0.0344749	1	-0.000262764	39	24.2028	3.85596e-05
2	0	0	0	0	33.266	-1.13168	-1.13148	-0.0403573	1	-0.000283022	39	24.7228	4.56636e-05
2	0	0	0	0	33.786	-1.14468	-1.14449	-0.046218	1	-0.000306316	39	25.2428	5.28959e-05
2	0	0	1	0	34.3062	-1.15768	-1.15747	-0.0609308	1	-0.000333926	39	25.763	7.05253e-05
2	0	0	1	0	34.8262	-1.17068	-1.17048	-0.141261	1	-0.00038256	39	26.283	0.000165344
2	0	0	1	0	35.3462	-1.18368	-1.18348	-0.322107	1	-0.000504196	39	26.803	0.000381208
2	0	0	0	0	35.8664	-1.19669	-1.19647	-0.347643	1	-0.000687118	39	27.3232	0.000415945
2	0	0	0	0	36.3864	-1.20969	-1.20949	-0.31718	1	-0.000858903	39	27.8432	0.000383626
2	0	0	0	0	36.9064	-1.22269	-1.22249	-0.319046	1	-0.00102322	39	28.3632	0.000390029
2	0	0	1	0	37.4266	-1.23569	-1.23548	-0.342975	1	-0.00119569	39	28.8834	0.000423739
2	0	0	1	0	37.9466	-1.24869	-1.24849	-0.397022	1	-0.00138833	39	29.4034	0.000495678
2	0	0	1	0	38.4666	-1.26169	-1.26149	-0.486066	1	-0.00161636	39	29.9234	0.000613167
2	0	0	1	0	38.9866	-1.27469	-1.27447	-0.639815	1	-0.00190532	39	30.4434	0.000815424
2	0	0	0	0	39.5068	-1.2877	-1.28749	-0.94297	1	-0.00230892	39	30.9636	0.00121407
2	0	0	0	0	40.0268	-1.3007	-1.30049	-1.51159	1	-0.00293567	39	31.4836	0.00196581
2	0	0	0	0	40.5468	-1.3137	-1.31351	-2.43553	1	-0.00395476	39	32.0036	0.00319909
2	0	0	1	0	41.067	-1.3267	-1.32651	-3.41563	1	-0.00548511	39	32.5238	0.00453086
2	0	0	1	0	41.587	-1.3397	-1.33951	-4.26837	1	-0.00749417	39	33.0438	0.00571753
2	0	0	0	1	42.0596	-1.3484	-1.34821	-4.70278	2	-0.00965672	39	33.5164	0.00634034
2	0	0	0	1	42.5796	-1.3354	-1.33521	-3.66877	2	-0.0118179	39	34.0364	0.00489858
2	0	0	0	1	43.0996	-1.3224	-1.32222	-2.87628	2	-0.0135106	39	34.5564	0.00380307
2	0	0	1	1	43.6198	-1.3094	-1.30919	-2.2675	2	-0.0148401	39	35.0766	0.00296859
2	0	0	1	1	44.1398	-1.2964	-1.29622	-1.76514	2	-0.0158818	39	35.5966	0.00228801
2	0	0	1	1	44.6598	-1.2834	-1.28319	-1.39115	2	-0.0166975	39	36.1166	0.00178511
2	0	0	0	1	45.18	-1.27039	-1.27019	-1.10323	2	-0.0173408	39	36.6368	0.00140131
2	0	0	0	1	45.7	-1.25739	-1.25717	-0.886153	2	-0.0178536	39	37.1568	0.00111405
2	0	0	0	1	46.22	-1.24439	-1.24419	-0.720406	2	-0.0182688	39	37.6768	0.000896318
2	0	0	1	1	46.7402	-1.23139	-1.23118	-0.591216	2	-0.0186073	39	38.197	0.000727894
2	0	0	1	1	47.2602	-1.21839	-1.21819	-0.490019	2	-0.0188867	39	38.717	0.000596933
2	0	0	1	1	47.7802	-1.20539	-1.20517	-0.40654	2	-0.019118	39	39.237	0.000489949
2	0	0	1	1	48.3002	-1.19239	-1.19217	-0.337633	2	-0.0193098	39	39.757	0.000402518
2	0	0	0	1	48.8204	-1.17938	-1.17918	-0.278404	2	-0.0194685	39	40.2772	0.000328289
2	0	0	0	1	49.3404	-1.16638	-1.16617	-0.227974	2	-0.0195989	39	40.7972	0.000265857
2	0	0	0	1	49.8604	-1.15338	-1.15317	-0.183759	2	-0.0197046	39	41.3172	0.000211905
2	0	0	1	1	50.3806	-1.14038	-1.14017	-0.145522	2	-0.0197888	39	41.8374	0.00016592
2	0	0	1	1	50.9006	-1.12738	-1.12718	-0.112677	2	-0.0198545	39	42.3574	0.000127008
2	0	0	1	1	51.4206	-1.11438	-1.11416	-0.0850813	2	-0.0199046	39	42.8774	9.47939e-05
2	0	0	0	1	51.9408	-1.10137	-1.10117	-0.0626605	2	-0.0199417	39	43.3976	6.9e-05
2	0	0	0	1	52.4608	-1.08837	-1.08817	-0.0433109	2	-0.0199678	39	43.9176	4.71295e-05
2	0	0	0	1	52.9808	-1.07537	-1.07518	-0.0270398	2	-0.0199847	39	44.4376	2.90725e-05
2	0	0	1	1	53.501	-1.06237	-1.06217	-0.012501	2	-0.0199937	39	44.9578	1.32781e-05
2	0	0	1	1	54.021	-1.04937	-1.04917	0.00102101	2	-0.0199954	39	0.08	-1.07121e-06
2	1	0	1	1	54.541	-1.03637	-1.03616	0.0150909	2	-0.0199899	39	0.6	-1.56366e-05
2	1	0	1	1	55.061	-1.02337	-1.02316	0.0269596	2	-0.0199774	39	1.12	-2.7584e-05
2	1	0	0	1	55.5812	-1.01036	-1.01016	0.0324058	2	-0.0199605	39	1.6402	-3.27349e-05
2	1	0	0	1	56.1012	-0.997362	-0.997159	0.0368814	2	-0.0199414	39	2.1602	-3.67766e-05
2	1	0	0	1	56.6212	-0.984361	-0.984149	0.0417173	2	-0.0199199	39	2.6802	-4.1056e-05
2	1	0	1	1	57.1414	-0.971359	-0.971145	0.0487067	2	-0.0198955	39	3.2004	-4.73012e-05
2	1	0	1	1	57.6614	-0.958357	-0.958141	0.060335	2	-0.0198663	39	3.7204	-5.78095e-05
2	1	0	1	1	58.1814	-0.945356	-0.945164	0.0777379	2	-0.0198296	39	4.2404	-7.34751e-05
2	1	0	0	1	58.7016	-0.932354	-0.932154	0.100279	2	-0.0197825	39	4.7606	-9.34751e-05
2	1	0	0	1	59.2216	-0.919353	-0.919148	0.125054	2	-0.019723	39	5.2806	-0.000114943
2	1	0	0	1	59.7416	-0.906351	-0.906141	0.148892	2	-0.0196506	39	5.8006	-0.000134917
2	1	0	1	1	60.2618	-0.89335	-0.893149	0.165824	2	-0.0195673	39	6.3208	-0.000148105
2	1	0	1	1	60.7818	-0.880348	-0.88014	0.172465	2	-0.0194778	39	6.8408	-0.000151793
2	1	0	1	1	61.3018	-0.867347	-0.867149	0.170383	2	-0.0193874	39	7.3608	-0.000147747
2	1	0	1	1	61.8218	-0.854345	-0.854136	0.163414	2	-0.0192996	39	7.8808	-0.000139577
2	1	0	0	1	62.342	-0.841344	-0.841154	0.153921	2	-0.0192161	39	8.401	-0.000129471
2	1	0	0	1	62.862	-0.828342	-0.828137	0.143746	2	-0.0191378	39	8.921	-0.000119042
2	1	0	0	1	63.382	-0.815341	-0.815152	0.133793	2	-0.0190648	39	9.441	-0.000109062
2	1	0	1	1	63.9022	-0.802339	-0.802122	0.124247	2	-0.0189969	39	9.9612	-9.96612e-05
2	1	0	1	1	64.4222	-0.789338	-0.789135	0.115422	2	-0.0189339	39	10.4812	-9.10834e-05
2	1	0	1	1	64.9422	-0.776336	-0.776134	0.10721	2	-0.0188754	39	11.0012	-8.32092e-05
2	1	0	0	1	65.4624	-0.763335	-0.763128	0.0998214	2	-0.0188208	39	11.5214	-7.61765e-05
2	1	0	0	1	65.9824	-0.750333	-0.750124	0.0933398	2	-0.0187699	39	12.0414	-7.00164e-05
2	1	0	0	1	66.5024	-0.737331	-0.737122	0.0876214	2	-0.0187222	39	12.5614	-6.45877e-05
2	1	0	1	1	67.0226	-0.72433	-0.724098	0.0824721	2	-0.0186774	39	13.0816	-5.97178e-05
2	1	0	1	1	67.5426	-0.711328	-0.711129	0.0780342	2	-0.0186351	39	13.6016	-5.54924e-05
2	1	0	1	1	68.0626	-0.698327	-0.698119	0.0741778	2	-0.0185948	39	14.1216	-5.17849e-05
2	1	0	1	1	68.5826	-0.685325	-0.685135	0.0713288	2	-0.0185564	39	14.6416	-4.88699e-05
2	1	0	0	1	69.1028	-0.672324	-0.672123	0.0688148	2	-0.0185193	39	15.1618	-4.6252e-05
2	1	0	0	1	69.6228	-0.659322	-0.659129	0.0668296	2	-0.0184835	39	15.6818	-4.40494e-05
2	1	0	0	1	70.1428	-0.646321	-0.646109	0.0652287	2	-0.0184486	39	16.2018	-4.21449e-05
2	1	0	1	1	70.663	-0.633319	-0.633126	0.063965	2	-0.0184144	39	16.722	-4.04979e-05
2	1	0	1	1	71.183	-0.620318	-0.620117	0.0628486	2	-0.0183808	39	17.242	-3.89735e-05
2	1	0	1	1	71.703	-0.607316	-0.607099	0.0619935	2	-0.0183478	39	17.762	-3.76362e-05
2	1	0	0	1	72.2232	-0.594315	-0.594106	0.060844	2	-0.0183153	39	18.2822	-3.61478e-05
2	1	0	0	1	72.7432	-0.581313	-0.58112	0.0597828	2	-0.0182834	39	18.8022	-3.4741e-05
2	1	0	0	1	73.2632	-0.568311	-0.568103	0.0585375	2	-0.018252	39	19.3222	-3.32553e-05
2	1	0	1	1	73.7833	-0.55531	-0.555101	0.0573763	2	-0.0182213	39	19.8423	-3.18496e-05
2	1	0	1	1	74.3034	-0.542308	-0.542105	0.0562759	2	-0.0181912	39	20.3624	-3.05074e-05
2	1	0	1	1	74.8234	-0.529307	-0.529096	0.0549019	2	-0.0181618	39	20.8824	-2.90484e-05
2	1	0	1	1	75.3434	-0.516305	-0.516078	0.0534157	2	-0.0181331	39	21.4024	-2.75667e-05
2	1	0	0	1	75.8636	-0.503304	-0.503115	0.0520932	2	-0.0181052	39	21.9226	-2.62089e-05
2	1	0	0	1	76.3836	-0.490302	-0.490094	0.0507103	2	-0.0180779	39	22.4426	-2.48528e-05
2	1	0	0	1	76.9036	-0.477301	-0.477106	0.0493332	2	-0.0180514	39	22.9626	-2.35372e-05
2	1	0	1	1	77.4238	-0.464299	-0.464096	0.0481814	2	-0.0180256	39	23.4828	-2.23608e-05
2	1	0	1	1	77.9438	-0.451298	-0.451107	0.0469925	2	-0.0180004	39	24.0028	-2.11987e-05
2	1	0	1	1	78.4638	-0.438296	-0.438106	0.0458711	2	-0.0179757	39	24.5228	-2.00964e-05
2	1	0	0	1	78.984	-0.425295	-0.425113	0.0450033	2	-0.0179516	39	25.043	-1.91315e-05
2	1	0	0	1	79.504	-0.412293	-0.412096	0.0440292	2	-0.017928	39	25.563	-1.81443e-05
2	1	0	0	1	80.024	-0.399291	-0.399099	0.0432629	2	-0.0179048	39	26.083	-1.72662e-05
2	1	0	1	1	80.544	-0.386291	-0.38609	0.0424536	2	-0.017882	39	26.603	-1.63909e-05
2	1	0	1	1	81.0642	-0.373288	-0.373096	0.0419607	2	-0.0178595	39	27.1232	-1.56553e-05
2	1	0	1	1	81.5842	-0.360287	-0.360081	0.0411936	2	-0.0178374	39	27.6432	-1.4833e-05
2	1	0	1	1	82.1042	-0.347285	-0.347081	0.0406691	2	-0.0178156	39	28.1632	-1.41155e-05
2	1	0	0	1	82.6244	-0.334284	-0.33408	0.0400685	2	-0.0177942	39	28.6834	-1.33861e-05
2	1	0	0	1	83.1444	-0.321282	-0.321073	0.0397037	2	-0.0177729	39	29.2034	-1.27478e-05
2	1	0	0	1	83.6644	-0.308281	-0.308079	0.0392703	2	-0.017752	39	29.7234	-1.20984e-05
2	1	0	0	1	84.1372	-0.30358	-0.303383	0.0363587	2	-0.0177336	39	30.1962	-1.10306e-05
2	1	0	0	1	84.6572	-0.316582	-0.31637	0.0310429	2	-0.0177165	39	30.7162	-9.82103e-06
2	1	0	0	1	85.1772	-0.329583	-0.329393	0.0271875	2	-0.0177018	39	31.2362	-8.95535e-06
2	1	0	0	1	85.6972	-0.342585	-0.342374	0.0242622	2	-0.0176889	39	31.7562	-8.30674e-06
2	1	0	1	1	86.2174	-0.355586	-0.355388	0.0216141	2	-0.0176774	39	32.2764	-7.68138e-06
2	1	0	1	1	86.7374	-0.368588	-0.368389	0.0196699	2	-0.0176671	39	32.7964	-7.24619e-06
2	1	0	1	1	87.2574	-0.381589	-0.381424	0.0180474	2	-0.0176578	39	33.3164	-6.88369e-06
2	1	0	0	1	87.7776	-0.394591	-0.394376	0.0165261	2	-0.0176492	39	33.8366	-6.51748e-06
2	1	0	0	1	88.2976	-0.407592	-0.407395	0.0152751	2	-0.0176414	39	34.3566	-6.22299e-06
2	1	0	0	1	88.8176	-0.420594	-0.420387	0.0141912	2	-0.0176342	39	34.8766	-5.9658e-06
2	1	0	1	1	89.3378	-0.433596	-0.433394	0.0131171	2	-0.0176276	39	35.3968	-5.68486e-06
2	1	0	1	1	89.8578	-0.446597	-0.446387	0.0122988	2	-0.0176215	39	35.9168	-5.49002e-06
2	1	0	1	1	90.3778	-0.459599	-0.459398	0.0114175	2	-0.0176158	39	36.4368	-5.24518e-06
2	1	0	0	1	90.898	-0.4726	-0.472369	0.0106691	2	-0.0176105	39	36.957	-5.03977e-06
2	1	0	0	1	91.418	-0.485602	-0.485398	0.010006	2	-0.0176056	39	37.477	-4.85689e-06
2	1	0	0	1	91.938	-0.498603	-0.498391	0.00949842	2	-0.0176011	39	37.997	-4.73393e-06
2	1	0	0	1	92.458	-0.511605	-0.511403	0.00890774	2	-0.0175968	39	38.517	-4.55545e-06
2	1	0	1	1	92.9782	-0.524606	-0.524422	0.00835461	2	-0.0175928	39	39.0372	-4.38134e-06
2	1	0	1	1	93.4982	-0.537608	-0.537406	0.0078952	2	-0.0175891	39	39.5572	-4.24292e-06
2	1	0	1	1	94.0182	-0.550609	-0.550398	0.00738385	2	-0.0175856	39	40.0772	-4.06406e-06
2	1	0	0	1	94.5384	-0.563611	-0.56342	0.00711495	2	-0.0175824	39	40.5974	-4.00871e-06
2	1	0	0	1	95.0584	-0.576612	-0.576409	0.00664609	2	-0.0175793	39	41.1174	-3.83087e-06
2	1	0	0	1	95.5784	-0.589614	-0.589403	0.00627144	2	-0.0175765	39	41.6374	-3.6964e-06
2	1	0	1	1	96.0986	-0.602615	-0.602405	0.00583445	2	-0.0175739	39	42.1576	-3.5147e-06
2	1	0	1	1	96.6186	-0.615617	-0.615416	0.00557807	2	-0.0175715	39	42.6776	-3.43283e-06
2	1	0	1	1	97.1386	-0.628619	-0.62842	0.00546357	2	-0.0175692	39	43.1976	-3.43342e-06
2	1	0	0	1	97.6588	-0.64162	-0.641425	0.00496048	2	-0.0175672	39	43.7178	-3.18178e-06
2	1	0	0	1	98.1788	-0.654622	-0.654433	0.00453011	2	-0.0175653	39	44.2378	-2.96465e-06
2	1	0	0	1	98.6988	-0.667623	-0.667419	0.00415828	2	-0.0175635	39	44.7578	-2.77531e-06
2	1	0	0	1	99.2188	-0.680625	-0.680425	0.00393636	2	-0.017562	39	45.2778	-2.6784e-06
2	1	0	1	1	99.739	-0.693626	-0.693425	0.00347247	2	-0.0175607	39	45.798	-2.40789e-06
2	1	0	1	1	100.259	-0.706628	-0.706421	0.00290634	2	-0.0175597	39	46.318	-2.0531e-06
2	1	0	1	1	100.779	-0.719629	-0.719421	0.00255128	2	-0.0175589	39	46.838	-1.83545e-06
2	1	0	0	1	101.299	-0.732631	-0.732441	0.00176844	2	-0.0175584	39	47.3582	-1.29528e-06
2	1	0	0	1	101.819	-0.745632	-0.745413	0.00119901	2	-0.0175582	39	0.000000000000000E+000	-8.93759e-07
2	1	0	0	1	102.339	-0.758634	-0.75843	0.000232262	2	-0.0175585	39	0.52	-1.76155e-07
2	0	0	1	1	102.859	-0.771635	-0.77143	-0.000880857	2	-0.0175594	39	1.0402	6.7952e-07
2	0	0	1	1	103.379	-0.784637	-0.784437	-0.00219889	2	-0.0175609	39	1.5602	1.7249e-06
2	0	0	1	1	103.899	-0.797638	-0.797446	-0.00410501	2	-0.0175633	39	2.0802	3.27352e-06
2	0	0	0	1	104.42	-0.81064	-0.810451	-0.0063159	2	-0.0175667	39	2.6004	5.11873e-06
2	0	0	0	1	104.94	-0.823642	-0.823433	-0.00879404	2	-0.0175713	39	3.1204	7.2413e-06
2	0	0	0	1	105.46	-0.836643	-0.836465	-0.0110602	2	-0.0175773	39	3.6404	9.25145e-06
2	0	0	0	1	105.98	-0.849645	-0.849439	-0.0136058	2	-0.0175845	39	4.1604	1.15573e-05
2	0	0	1	1	106.5	-0.862646	-0.862463	-0.0156302	2	-0.0175929	39	4.6806	1.34805e-05
2	0	0	1	1	107.02	-0.875648	-0.875451	-0.0169107	2	-0.0176022	39	5.2006	1.48045e-05
2	0	0	1	1	107.54	-0.888649	-0.888467	-0.0171289	2	-0.0176118	39	5.7206	1.52184e-05
2	0	0	0	1	108.06	-0.901651	-0.901453	-0.0169213	2	-0.0176216	39	6.2408	1.52538e-05
2	0	0	0	1	108.58	-0.914652	-0.914474	-0.0169308	2	-0.0176312	39	6.7608	1.54828e-05
2	0	0	0	1	109.1	-0.927654	-0.927466	-0.0170188	2	-0.0176408	39	7.2808	1.57844e-05
2	0	0	1	1	109.62	-0.940655	-0.940465	-0.0175852	2	-0.0176505	39	7.801	1.65383e-05
2	0	0	1	1	110.14	-0.953657	-0.953475	-0.0185732	2	-0.0176607	39	8.321	1.77091e-05
2	0	0	1	1	110.66	-0.966658	-0.966466	-0.0204989	2	-0.0176716	39	8.841	1.98115e-05
2	0	0	0	1	111.18	-0.97966	-0.97948	-0.0227478	2	-0.0176836	39	9.3612	2.2281e-05
2	0	0	0	1	111.7	-0.992662	-0.992473	-0.0251809	2	-0.0176968	39	9.8812	2.49913e-05
2	0	0	0	1	112.22	-1.00566	-1.00547	-0.0283951	2	-0.0177115	39	10.4012	2.85505e-05
2	0	0	0	1	112.74	-1.01866	-1.01846	-0.032124	2	-0.017728	39	10.9212	3.27171e-05
2	0	0	1	1	113.261	-1.03167	-1.03147	-0.0374821	2	-0.0177469	39	11.4414	3.86615e-05
2	0	0	1	1	113.781	-1.04467	-1.04449	-0.0437252	2	-0.0177687	39	11.9614	4.56703e-05
2	0	0	1	1	114.301	-1.05767	-1.05748	-0.0503355	2	-0.0177939	39	12.4814	5.32285e-05
2	0	0	0	1	114.821	-1.07067	-1.07049	-0.0584852	2	-0.0178229	39	13.0016	6.26081e-05
2	0	0	0	1	115.341	-1.08367	-1.08349	-0.0711733	2	-0.0178572	39	13.5216	7.71155e-05
2	0	0	0	1	115.861	-1.09667	-1.09649	-0.0906186	2	-0.0178999	39	14.0416	9.93626e-05
2	0	0	1	1	116.381	-1.10968	-1.10949	-0.110578	2	-0.0179531	39	14.5618	0.000122685
2	0	0	1	1	116.901	-1.12268	-1.12248	-0.131315	2	-0.0180166	39	15.0818	0.000147398
2	0	0	1	1	117.421	-1.13568	-1.13547	-0.161174	2	-0.0180932	39	15.6018	0.000183008
2	0	0	1	1	117.941	-1.14868	-1.14847	-0.20365	2	-0.0181883	39	16.1219	0.000233885
2	0	0	0	1	118.461	-1.16168	-1.16147	-0.243784	2	-0.0183067	39	16.642	0.000283148
2	0	0	0	1	118.981	-1.17468	-1.17446	-0.278812	2	-0.0184441	39	17.162	0.000327454
2	0	0	0	1	119.501	-1.18768	-1.18747	-0.308857	2	-0.0185977	39	17.682	0.000366758
2	0	0	1	1	120.021	-1.20069	-1.20048	-0.351469	2	-0.0187698	39	18.2022	0.000421932
2	0	0	1	1	120.541	-1.21369	-1.21347	-0.400714	2	-0.0189655	39	18.7222	0.000486256
2	0	0	1	1	121.061	-1.22669	-1.22645	-0.464583	2	-0.0191907	39	19.2422	0.000569786
2	0	0	0	1	121.582	-1.23969	-1.23948	-0.544443	2	-0.0194535	39	19.7624	0.000674827
2	0	0	0	1	122.102	-1.25269	-1.2525	-0.645294	2	-0.0197627	39	20.2824	0.000808228
2	0	0	0	1	122.622	-1.26569	-1.26549	-0.768883	2	-0.02013	39	20.8024	0.000973014
2	0	0	1	1	123.142	-1.2787	-1.27849	-0.928688	2	-0.0205714	39	21.3226	0.00118732
2	0	0	1	1	123.662	-1.2917	-1.29147	-1.13166	2	-0.021106	39	21.8426	0.0014615
2	0	0	1	1	124.182	-1.3047	-1.30446	-1.39273	2	-0.0217616	39	22.3626	0.00181676
2	0	0	1	1	124.702	-1.3177	-1.31748	-1.72503	2	-0.0225694	39	22.8826	0.0022727
2	0	0	0	1	125.222	-1.3307	-1.3305	-2.12673	2	-0.0235691	39	23.4028	0.00282961
2	0	0	0	1	125.742	-1.3437	-1.34348	-2.61589	2	-0.0248007	39	23.9228	0.00351439
2	0	0	1	0	126.215	-1.3444	-1.34419	-2.63584	3	-0.0260989	39	24.3954	0.00354307
2	0	0	1	0	126.735	-1.3314	-1.3312	-2.16677	3	-0.0273441	39	24.9154	0.00288439
2	0	0	1	0	127.255	-1.3184	-1.31819	-1.76464	3	-0.0283627	39	25.4355	0.00232613
2	0	0	0	0	127.775	-1.3054	-1.3052	-1.4476	3	-0.0291952	39	25.9556	0.00188941
2	0	0	0	0	128.295	-1.2924	-1.29217	-1.17606	3	-0.0298726	39	26.4756	0.00151967
2	0	0	0	0	128.815	-1.2794	-1.27919	-0.956652	3	-0.0304237	39	26.9956	0.00122374
2	0	0	1	0	129.335	-1.26639	-1.26618	-0.784633	3	-0.0308743	39	27.5158	0.000993488
2	0	0	1	0	129.855	-1.25339	-1.25317	-0.645465	3	-0.0312439	39	28.0358	0.000808878
2	0	0	1	0	130.375	-1.24039	-1.24018	-0.532835	3	-0.0315481	39	28.5558	0.000660811
2	0	0	0	0	130.895	-1.22739	-1.2272	-0.444527	3	-0.0318014	39	29.076	0.000545523
2	0	0	0	0	131.415	-1.21439	-1.21418	-0.369621	3	-0.0320115	39	29.596	0.000448786
2	0	0	0	0	131.935	-1.20139	-1.2012	-0.30719	3	-0.0321861	39	30.116	0.000368998
2	0	0	1	0	132.455	-1.18838	-1.18816	-0.254568	3	-0.0323309	39	30.6362	0.000302468
2	0	0	1	0	132.975	-1.17538	-1.17517	-0.2094	3	-0.0324503	39	31.1562	0.000246081
2	0	0	1	0	133.495	-1.16238	-1.16218	-0.170053	3	-0.0325478	39	31.6762	0.000197632
2	0	0	1	0	134.015	-1.14938	-1.1492	-0.13588	3	-0.0326262	39	32.1963	0.000156153
2	0	0	0	0	134.536	-1.13638	-1.13619	-0.106332	3	-0.0326882	39	32.7164	0.000120813
2	0	0	0	0	135.056	-1.12338	-1.12319	-0.0815462	3	-0.0327359	39	33.2364	9.15918e-05
2	0	0	0	0	135.576	-1.11038	-1.11019	-0.0605851	3	-0.0327717	39	33.7564	6.72609e-05
2	0	0	1	0	136.096	-1.09737	-1.09718	-0.0431426	3	-0.0327976	39	34.2766	4.73352e-05
2	0	0	1	0	136.616	-1.08437	-1.08417	-0.0286064	3	-0.0328152	39	34.7966	3.10141e-05
2	0	0	1	0	137.136	-1.07137	-1.07116	-0.0165561	3	-0.0328259	39	35.3166	1.77342e-05
2	0	0	0	0	137.656	-1.05837	-1.05815	-0.00627907	3	-0.0328308	39	35.8368	6.64422e-06
2	1	0	0	0	138.176	-1.04537	-1.04517	0.00341297	3	-0.0328305	39	0.24	-3.56713e-06
2	1	0	0	0	138.696	-1.03237	-1.03216	0.0120216	3	-0.0328254	39	0.76	-1.24083e-05
2	1	0	1	0	139.216	-1.01936	-1.01917	0.0155692	3	-0.032817	39	1.2802	-1.58676e-05
2	1	0	1	0	139.736	-1.00636	-1.00615	0.0183904	3	-0.0328073	39	1.8002	-1.85035e-05
2	1	0	1	0	140.256	-0.993362	-0.993147	0.0231564	3	-0.0327957	39	2.3202	-2.29977e-05
2	1	0	1	0	140.776	-0.98036	-0.980162	0.030837	3	-0.0327809	39	2.8402	-3.02253e-05
2	1	0	0	0	141.296	-0.967359	-0.967149	0.0417529	3	-0.0327614	39	3.3604	-4.03813e-05
2	1	0	0	0	141.816	-0.954357	-0.954173	0.0574501	3	-0.032735	39	3.8804	-5.48174e-05
2	1	0	0	0	142.336	-0.941355	-0.941163	0.0776697	3	-0.0326993	39	4.4004	-7.30999e-05
2	1	0	1	0	142.857	-0.928354	-0.928158	0.101554	3	-0.032652	39	4.9206	-9.42579e-05
2	1	0	1	0	143.377	-0.915352	-0.915183	0.127248	3	-0.0325918	39	5.4406	-0.000116455
2	1	0	1	0	143.897	-0.902351	-0.902159	0.153441	3	-0.032518	39	5.9606	-0.000138428
2	1	0	0	0	144.417	-0.889349	-0.889181	0.176821	3	-0.032431	39	6.4808	-0.000157226
2	1	0	0	0	144.937	-0.876348	-0.876161	0.190102	3	-0.0323341	39	7.0008	-0.00016656
2	1	0	0	0	145.457	-0.863346	-0.863169	0.185651	3	-0.0322346	39	7.5208	-0.000160248
2	1	0	1	0	145.977	-0.850345	-0.85018	0.167605	3	-0.0321416	39	8.041	-0.000142494
2	1	0	1	0	146.497	-0.837343	-0.837157	0.146542	3	-0.0320592	39	8.561	-0.000122679
2	1	0	1	0	147.017	-0.824342	-0.824156	0.128466	3	-0.0319871	39	9.081	-0.000105876
2	1	0	1	0	147.537	-0.81134	-0.811145	0.113883	3	-0.0319235	39	9.601	-9.2376e-05
2	1	0	0	0	148.057	-0.798339	-0.798131	0.101891	3	-0.0318668	39	10.1212	-8.1322e-05
2	1	0	0	0	148.577	-0.785337	-0.785133	0.0916058	3	-0.0318159	39	10.6412	-7.19227e-05
2	1	0	0	0	149.097	-0.772336	-0.772126	0.0829008	3	-0.03177	39	11.1612	-6.40099e-05
2	1	0	1	0	149.617	-0.759334	-0.759128	0.0752758	3	-0.0317282	39	11.6814	-5.7144e-05
2	1	0	1	0	150.137	-0.746332	-0.74613	0.0687343	3	-0.0316902	39	12.2014	-5.12847e-05
2	1	0	1	0	150.657	-0.733331	-0.73315	0.063142	3	-0.0316554	39	12.7214	-4.62926e-05
2	1	0	0	0	151.178	-0.720329	-0.720152	0.0580939	3	-0.0316233	39	13.2416	-4.18365e-05
2	1	0	0	0	151.698	-0.707328	-0.707114	0.0539682	3	-0.0315936	39	13.7616	-3.81616e-05
2	1	0	0	0	152.218	-0.694326	-0.694122	0.0504272	3	-0.0315658	39	14.2816	-3.50026e-05
2	1	0	1	0	152.738	-0.681325	-0.681138	0.047623	3	-0.0315398	39	14.8018	-3.24378e-05
2	1	0	1	0	153.258	-0.668323	-0.668119	0.0450453	3	-0.0315152	39	15.3218	-3.00956e-05
2	1	0	1	0	153.778	-0.655322	-0.655137	0.0427052	3	-0.0314919	39	15.8418	-2.79778e-05
2	1	0	1	0	154.298	-0.64232	-0.642142	0.0408261	3	-0.0314695	39	16.3618	-2.62161e-05
2	1	0	0	0	154.818	-0.629319	-0.629129	0.0395467	3	-0.0314481	39	16.882	-2.488e-05
2	1	0	0	0	155.338	-0.616317	-0.616125	0.0383406	3	-0.0314274	39	17.402	-2.36226e-05
2	1	0	0	0	155.858	-0.603316	-0.60313	0.0368531	3	-0.0314073	39	17.922	-2.22272e-05
2	1	0	1	0	156.378	-0.590314	-0.590119	0.0356781	3	-0.0313879	39	18.4422	-2.10543e-05
2	1	0	1	0	156.898	-0.577312	-0.577115	0.0347512	3	-0.0313691	39	18.9622	-2.00554e-05
2	1	0	1	0	157.418	-0.564311	-0.564125	0.0337505	3	-0.0313507	39	19.4822	-1.90395e-05
2	1	0	0	0	157.938	-0.551309	-0.551102	0.0327356	3	-0.031333	39	20.0024	-1.80407e-05
2	1	0	0	0	158.458	-0.538308	-0.538095	0.0318212	3	-0.0313157	39	20.5224	-1.71228e-05
2	1	0	0	0	158.978	-0.525306	-0.525101	0.0308403	3	-0.0312989	39	21.0424	-1.61943e-05
2	1	0	1	0	159.499	-0.512305	-0.512099	0.030243	3	-0.0312825	39	21.5626	-1.54874e-05
2	1	0	1	0	160.019	-0.499303	-0.499103	0.0294614	3	-0.0312665	39	22.0826	-1.47043e-05
2	1	0	1	0	160.539	-0.486302	-0.486104	0.028671	3	-0.0312509	39	22.6026	-1.39371e-05
2	1	0	1	0	161.059	-0.4733	-0.473088	0.0279306	3	-0.0312356	39	23.1226	-1.32137e-05
2	1	0	0	0	161.579	-0.460299	-0.460099	0.0275928	3	-0.0312207	39	23.6428	-1.26954e-05
2	1	0	0	0	162.099	-0.447297	-0.447091	0.0268831	3	-0.0312061	39	24.1628	-1.20192e-05
2	1	0	0	0	162.619	-0.434296	-0.434101	0.0264089	3	-0.0311917	39	24.6828	-1.14641e-05
2	1	0	1	0	163.139	-0.421294	-0.421101	0.0260507	3	-0.0311775	39	25.203	-1.097e-05
2	1	0	1	0	163.659	-0.408293	-0.40808	0.0258593	3	-0.0311636	39	25.723	-1.05526e-05
2	1	0	1	0	164.179	-0.395291	-0.395083	0.0254001	3	-0.0311498	39	26.243	-1.00351e-05
2	1	0	0	0	164.699	-0.382289	-0.382091	0.0251135	3	-0.0311362	39	26.7632	-9.59565e-06
2	1	0	0	0	165.219	-0.369288	-0.369087	0.0246527	3	-0.0311229	39	27.2832	-9.09897e-06
2	1	0	0	0	165.739	-0.356286	-0.356096	0.0244966	3	-0.0311096	39	27.8032	-8.72315e-06
2	1	0	1	0	166.259	-0.343286	-0.343096	0.024177	3	-0.0310965	39	28.3233	-8.29504e-06
2	1	0	1	0	166.779	-0.330283	-0.330088	0.0239454	3	-0.0310836	39	28.8434	-7.90407e-06
2	1	0	1	0	167.299	-0.317282	-0.317106	0.0236673	3	-0.0310708	39	29.3634	-7.50504e-06
2	1	0	1	0	167.819	-0.30428	-0.30409	0.023408	3	-0.031058	39	29.8834	-7.11816e-06
2	1	0	1	0	168.292	-0.307581	-0.307382	0.0208572	3	-0.0310475	39	30.3562	-6.41112e-06
2	1	0	1	0	168.812	-0.320582	-0.320389	0.0183335	3	-0.0310378	39	30.8762	-5.87386e-06
2	1	0	1	0	169.332	-0.333584	-0.333391	0.0164571	3	-0.0310291	39	31.3962	-5.48665e-06
2	1	0	0	0	169.852	-0.346585	-0.346384	0.0151341	3	-0.0310214	39	31.9164	-5.24223e-06
2	1	0	0	0	170.372	-0.359587	-0.359375	0.0136962	3	-0.0310143	39	32.4364	-4.92206e-06
2	1	0	0	0	170.892	-0.372588	-0.372382	0.0126947	3	-0.0310079	39	32.9564	-4.72728e-06
2	1	0	1	0	171.412	-0.385591	-0.385407	0.0118078	3	-0.0310019	39	33.4765	-4.55082e-06
2	1	0	1	0	171.933	-0.398591	-0.398407	0.0111396	3	-0.0309964	39	33.9966	-4.43811e-06
2	1	0	1	0	172.453	-0.411593	-0.411399	0.0102378	3	-0.0309913	39	34.5166	-4.21183e-06
2	1	0	1	0	172.973	-0.424594	-0.424401	0.00982539	3	-0.0309865	39	35.0366	-4.1699e-06
2	1	0	0	0	173.493	-0.437596	-0.437389	0.00928996	3	-0.030982	39	35.5568	-4.06332e-06
2	1	0	0	0	174.013	-0.450598	-0.450413	0.00883385	3	-0.0309778	39	36.0768	-3.97888e-06
2	1	0	0	0	174.533	-0.463599	-0.463405	0.00831518	3	-0.0309738	39	36.5968	-3.8533e-06
2	1	0	1	0	175.053	-0.476601	-0.476423	0.00797003	3	-0.03097	39	37.117	-3.7971e-06
2	1	0	1	0	175.573	-0.489602	-0.489404	0.00766242	3	-0.0309664	39	37.637	-3.75002e-06
2	1	0	1	0	176.093	-0.502604	-0.502391	0.00733923	3	-0.030963	39	38.157	-3.68716e-06
2	1	0	0	0	176.613	-0.515605	-0.515395	0.00707198	3	-0.0309598	39	38.6772	-3.64486e-06
2	1	0	0	0	177.133	-0.528607	-0.528409	0.00688666	3	-0.0309566	39	39.1972	-3.63897e-06
2	1	0	0	0	177.653	-0.541608	-0.541398	0.00652333	3	-0.0309537	39	39.7172	-3.53172e-06
2	1	0	0	0	178.173	-0.55461	-0.554388	0.00622209	3	-0.0309509	39	40.2372	-3.44945e-06
2	1	0	1	0	178.693	-0.567611	-0.567405	0.00607431	3	-0.0309482	39	40.7574	-3.44659e-06
2	1	0	1	0	179.213	-0.580613	-0.580402	0.00588308	3	-0.0309456	39	41.2774	-3.41455e-06
2	1	0	1	0	179.733	-0.593614	-0.593412	0.00562056	3	-0.0309432	39	41.7974	-3.33531e-06
2	1	0	0	0	180.254	-0.606616	-0.606425	0.00531507	3	-0.0309409	39	42.3176	-3.22319e-06
2	1	0	0	0	180.774	-0.619618	-0.61941	0.00515407	3	-0.0309387	39	42.8376	-3.19248e-06
2	1	0	0	0	181.294	-0.632619	-0.632419	0.00499141	3	-0.0309367	39	43.3576	-3.15666e-06
2	1	0	1	0	181.814	-0.645621	-0.645412	0.00471803	3	-0.0309348	39	43.8778	-3.04507e-06
2	1	0	1	0	182.334	-0.658622	-0.658415	0.00442694	3	-0.030933	39	44.3978	-2.91476e-06
2	1	0	1	0	182.854	-0.671624	-0.671426	0.00409973	3	-0.0309313	39	44.9178	-2.75266e-06
2	1	0	0	0	183.374	-0.684625	-0.684403	0.0038967	3	-0.0309298	39	45.438	-2.66692e-06
2	1	0	0	0	183.894	-0.697627	-0.697424	0.0035388	3	-0.0309285	39	45.958	-2.46805e-06
2	1	0	0	0	184.414	-0.710628	-0.710438	0.00301471	3	-0.0309273	39	46.478	-2.14176e-06
2	1	0	0	0	184.934	-0.72363	-0.723423	0.00280412	3	-0.0309264	39	46.998	-2.02857e-06
2	1	0	1	0	185.454	-0.736631	-0.736447	0.00210957	3	-0.0309257	39	47.5182	-1.55359e-06
2	1	0	1	0	185.974	-0.749633	-0.749442	0.00151678	3	-0.0309254	39	48.0382	-1.13674e-06
2	1	0	1	0	186.494	-0.762634	-0.762432	0.000824824	3	-0.0309254	39	0.2	-6.28872e-07
2	1	0	0	0	187.014	-0.775636	-0.775428	-0.000206847	3	-0.0309258	39	0.7202	1.60395e-07
2	0	0	0	0	187.534	-0.788637	-0.788439	-0.0014576	3	-0.0309269	39	1.2402	1.14923e-06
2	0	0	0	0	188.054	-0.801639	-0.801422	-0.00299661	3	-0.0309287	39	1.7602	2.40155e-06
2	0	0	1	0	188.575	-0.814641	-0.814445	-0.00485574	3	-0.0309315	39	2.2804	3.95474e-06
2	0	0	1	0	189.095	-0.827642	-0.827461	-0.0071377	3	-0.0309353	39	2.8004	5.90616e-06
2	0	0	1	0	189.615	-0.840644	-0.840452	-0.00934694	3	-0.0309402	39	3.3204	7.85566e-06
2	0	0	0	0	190.135	-0.853645	-0.853453	-0.0112257	3	-0.0309463	39	3.8406	9.58058e-06
2	0	0	0	0	190.655	-0.866647	-0.866465	-0.0127319	3	-0.0309534	39	4.3606	1.10317e-05
2	0	0	0	0	191.175	-0.879648	-0.87946	-0.0138582	3	-0.0309611	39	4.8806	1.21877e-05
2	0	0	0	0	191.695	-0.89265	-0.892469	-0.0141297	3	-0.0309692	39	5.4006	1.26103e-05
2	0	0	1	0	192.215	-0.905651	-0.905447	-0.0139925	3	-0.0309772	39	5.9208	1.26695e-05
2	0	0	1	0	192.735	-0.918653	-0.918442	-0.0138929	3	-0.0309853	39	6.4408	1.27598e-05
2	0	0	1	0	193.255	-0.931654	-0.931459	-0.0138691	3	-0.0309932	39	6.9608	1.29185e-05
2	0	0	0	0	193.775	-0.944656	-0.944454	-0.0143297	3	-0.0310012	39	7.481	1.35337e-05
2	0	0	0	0	194.295	-0.957657	-0.957462	-0.0151132	3	-0.0310096	39	8.001	1.44703e-05
2	0	0	0	0	194.815	-0.970659	-0.970476	-0.0162927	3	-0.0310185	39	8.521	1.58116e-05
2	0	0	1	0	195.335	-0.98366	-0.983461	-0.0177207	3	-0.031028	39	9.0412	1.74276e-05
2	0	0	1	0	195.855	-0.996662	-0.996467	-0.0194552	3	-0.0310384	39	9.5612	1.93865e-05
2	0	0	1	0	196.375	-1.00966	-1.00945	-0.0214243	3	-0.0310498	39	10.0812	2.16268e-05
2	0	0	0	0	196.896	-1.02267	-1.02247	-0.0238078	3	-0.0310623	39	10.6014	2.43428e-05
2	0	0	0	0	197.416	-1.03567	-1.03546	-0.0264399	3	-0.0310761	39	11.1214	2.73775e-05
2	0	0	0	0	197.936	-1.04867	-1.04849	-0.0294593	3	-0.0310914	39	11.6414	3.0888e-05
2	0	0	0	0	198.456	-1.06167	-1.06147	-0.0332961	3	-0.0311083	39	12.1614	3.53427e-05
2	0	0	1	0	198.976	-1.07467	-1.07447	-0.0392149	3	-0.0311278	39	12.6816	4.21351e-05
2	0	0	1	0	199.496	-1.08767	-1.08749	-0.0491371	3	-0.0311514	39	13.2016	5.34361e-05
2	0	0	1	0	200.016	-1.10067	-1.10048	-0.0647498	3	-0.0311814	39	13.7216	7.1256e-05
2	0	0	0	0	200.536	-1.11368	-1.11346	-0.0856913	3	-0.0312209	39	14.2418	9.54139e-05
2	0	0	0	0	201.056	-1.12668	-1.12649	-0.110996	3	-0.031273	39	14.7618	0.000125036
2	0	0	0	0	201.576	-1.13968	-1.13948	-0.135323	3	-0.0313379	39	15.2818	0.000154198
2	0	0	1	0	202.096	-1.15268	-1.15246	-0.155717	3	-0.0314151	39	15.802	0.000179458
2	0	0	1	0	202.616	-1.16568	-1.16548	-0.166507	3	-0.0314998	39	16.322	0.00019406
2	0	0	1	0	203.136	-1.17868	-1.17848	-0.171983	3	-0.0315885	39	16.842	0.000202679
2	0	0	1	0	203.656	-1.19168	-1.19147	-0.184071	3	-0.0316818	39	17.3621	0.000219315
2	0	0	0	0	204.176	-1.20469	-1.20451	-0.203609	3	-0.0317833	39	17.8822	0.000245249
2	0	0	0	0	204.696	-1.21769	-1.21749	-0.230984	3	-0.0318967	39	18.4022	0.000281221
2	0	0	0	0	205.216	-1.23069	-1.23049	-0.267187	3	-0.0320269	39	18.9222	0.000328772
2	0	0	1	0	205.737	-1.24369	-1.2435	-0.315066	3	-0.0321786	39	19.4424	0.000391784
2	0	0	1	0	206.257	-1.25669	-1.25649	-0.376553	3	-0.0323587	39	19.9624	0.000473134
2	0	0	1	0	206.777	-1.26969	-1.26948	-0.45761	3	-0.0325754	39	20.4824	0.000580926
2	0	0	0	0	207.297	-1.2827	-1.28251	-0.557485	3	-0.0328392	39	21.0026	0.000714982
2	0	0	0	0	207.817	-1.2957	-1.2955	-0.688993	3	-0.0331628	39	21.5226	0.000892593
2	0	0	0	0	208.337	-1.3087	-1.30848	-0.864038	3	-0.0335648	39	22.0426	0.00113057
2	0	0	1	0	208.857	-1.3217	-1.3215	-1.09031	3	-0.0340713	39	22.5628	0.00144085
2	0	0	1	0	209.377	-1.3347	-1.33449	-1.38089	3	-0.0347116	39	23.0828	0.00184278
2	0	0	1	0	209.897	-1.3477	-1.34752	-1.73817	3	-0.0355196	39	23.6028	0.00234221
2	0	0	0	1	210.37	-1.3404	-1.34019	-1.53725	4	-0.0363159	39	24.0754	0.00206021
2	0	0	0	1	210.89	-1.3274	-1.32721	-1.24071	4	-0.0370346	39	24.5954	0.00164667
2	0	0	1	1	211.41	-1.3144	-1.3142	-1.00123	4	-0.037614	39	25.1156	0.00131582
2	0	0	1	1	211.93	-1.3014	-1.3012	-0.807128	4	-0.0380812	39	25.6356	0.00105024
2	0	0	1	1	212.45	-1.2884	-1.2882	-0.65603	4	-0.0384586	39	26.1556	0.000845097
2	0	0	0	1	212.97	-1.27539	-1.27518	-0.536168	4	-0.0387664	39	26.6758	0.000683709
2	0	0	0	1	213.49	-1.26239	-1.2622	-0.441025	4	-0.0390183	39	27.1958	0.00055666
2	0	0	0	1	214.01	-1.24939	-1.24919	-0.365159	4	-0.0392261	39	27.7158	0.000456153
2	0	0	0	1	214.53	-1.23639	-1.23619	-0.304495	4	-0.0393987	39	28.2358	0.000376415
2	0	0	1	1	215.05	-1.22339	-1.2232	-0.256404	4	-0.0395433	39	28.756	0.000313633
2	0	0	1	1	215.57	-1.21039	-1.2102	-0.216752	4	-0.0396651	39	29.276	0.000262314
2	0	0	1	1	216.09	-1.19739	-1.19718	-0.182304	4	-0.0397678	39	29.796	0.000218252
2	0	0	0	1	216.61	-1.18438	-1.18419	-0.153012	4	-0.0398541	39	30.3162	0.000181195
2	0	0	0	1	217.13	-1.17138	-1.17119	-0.12689	4	-0.0399259	39	30.8362	0.000148613
2	0	0	0	1	217.65	-1.15838	-1.15817	-0.103026	4	-0.0399848	39	31.3562	0.000119322
2	0	0	1	1	218.171	-1.14538	-1.14518	-0.0819639	4	-0.0400319	39	31.8764	9.38636e-05
2	0	0	1	1	218.691	-1.13238	-1.13219	-0.0639446	4	-0.0400689	39	32.3964	7.23973e-05
2	0	0	1	1	219.211	-1.11938	-1.11919	-0.0484626	4	-0.0400972	39	32.9164	5.42391e-05
2	0	0	1	1	219.731	-1.10637	-1.10618	-0.0355072	4	-0.0401181	39	33.4366	3.92773e-05
2	0	0	0	1	220.251	-1.09337	-1.0932	-0.02517	4	-0.040133	39	33.9566	2.75159e-05
2	0	0	0	1	220.771	-1.08037	-1.08019	-0.0160712	4	-0.0401429	39	34.4766	1.73599e-05
2	0	0	0	1	221.291	-1.06737	-1.0672	-0.00857047	4	-0.0401484	39	34.9966	9.14639e-06
2	0	0	1	1	221.811	-1.05437	-1.05417	-0.00182848	4	-0.0401502	39	35.5168	1.92753e-06
2	1	0	1	1	222.331	-1.04137	-1.04119	0.00444889	4	-0.0401487	39	0.48	-4.63214e-06
2	1	0	1	1	222.851	-1.02837	-1.02817	0.00861902	4	-0.0401442	39	1	-8.8618e-06
2	1	0	0	1	223.371	-1.01536	-1.01514	0.00926564	4	-0.0401387	39	1.5202	-9.40596e-06
2	1	0	0	1	223.891	-1.00236	-1.00217	0.0119225	4	-0.0401325	39	2.0402	-1.19483e-05
2	1	0	0	1	224.411	-0.989361	-0.989186	0.0167912	4	-0.0401244	39	2.5602	-1.66096e-05
2	1	0	1	1	224.931	-0.97636	-0.976163	0.0246744	4	-0.0401131	39	3.0804	-2.40862e-05
2	1	0	1	1	225.451	-0.963358	-0.963182	0.0358594	4	-0.0400967	39	3.6004	-3.45391e-05
2	1	0	1	1	225.971	-0.950357	-0.950172	0.0510212	4	-0.0400736	39	4.1204	-4.84789e-05
2	1	0	1	1	226.491	-0.937355	-0.937179	0.0691944	4	-0.0400417	39	4.6404	-6.48475e-05
2	1	0	0	1	227.012	-0.924353	-0.924169	0.0895561	4	-0.0399997	39	5.1606	-8.2765e-05
2	1	0	0	1	227.532	-0.911352	-0.911175	0.11235	4	-0.0399465	39	5.6806	-0.00010237
2	1	0	0	1	228.052	-0.89835	-0.898171	0.136752	4	-0.039881	39	6.2006	-0.000122827
2	1	0	1	1	228.572	-0.885349	-0.885163	0.160043	4	-0.0398028	39	6.7208	-0.000141664
2	1	0	1	1	229.092	-0.872347	-0.872153	0.170968	4	-0.0397151	39	7.2408	-0.00014911
2	1	0	1	1	229.612	-0.859346	-0.859158	0.158848	4	-0.0396276	39	7.7608	-0.000136476
2	1	0	0	1	230.132	-0.846344	-0.846135	0.132707	4	-0.0395509	39	8.281	-0.000112288
2	1	0	0	1	230.652	-0.833343	-0.833154	0.109368	4	-0.0394875	39	8.801	-9.11204e-05
2	1	0	0	1	231.172	-0.820341	-0.820132	0.0921768	4	-0.0394346	39	9.321	-7.55972e-05
2	1	0	1	1	231.692	-0.80734	-0.80713	0.0793714	4	-0.0393895	39	9.8412	-6.4063e-05
2	1	0	1	1	232.212	-0.794338	-0.794129	0.0689612	4	-0.0393504	39	10.3612	-5.4764e-05
2	1	0	1	1	232.732	-0.781337	-0.781136	0.0605987	4	-0.0393161	39	10.8812	-4.73358e-05
2	1	0	1	1	233.252	-0.768335	-0.768127	0.0536273	4	-0.0392858	39	11.4012	-4.11926e-05
2	1	0	0	1	233.772	-0.755333	-0.75513	0.0476127	4	-0.039259	39	11.9214	-3.59538e-05
2	1	0	0	1	234.292	-0.742332	-0.74213	0.0425674	4	-0.039235	39	12.4414	-3.15905e-05
2	1	0	0	1	234.812	-0.72933	-0.729148	0.0384272	4	-0.0392134	39	12.9614	-2.80191e-05
2	1	0	1	1	235.333	-0.716329	-0.716131	0.0349977	4	-0.0391938	39	13.4816	-2.50629e-05
2	1	0	1	1	235.853	-0.703327	-0.703105	0.0322504	4	-0.0391758	39	14.0016	-2.26754e-05
2	1	0	1	1	236.373	-0.690326	-0.690128	0.029942	4	-0.0391591	39	14.5216	-2.06638e-05
2	1	0	0	1	236.893	-0.677324	-0.677109	0.0278112	4	-0.0391435	39	15.0418	-1.88312e-05
2	1	0	0	1	237.413	-0.664323	-0.664116	0.0263064	4	-0.0391289	39	15.5618	-1.74705e-05
2	1	0	0	1	237.933	-0.651321	-0.651126	0.025079	4	-0.0391151	39	16.0818	-1.63296e-05
2	1	0	1	1	238.453	-0.63832	-0.638123	0.0238516	4	-0.0391019	39	16.602	-1.52203e-05
2	1	0	1	1	238.973	-0.625318	-0.625127	0.0226335	4	-0.0390892	39	17.122	-1.41488e-05
2	1	0	1	1	239.493	-0.612317	-0.612131	0.0219441	4	-0.0390771	39	17.642	-1.34327e-05
2	1	0	1	1	240.013	-0.599315	-0.599106	0.0212283	4	-0.0390653	39	18.162	-1.2718e-05
2	1	0	0	1	240.533	-0.586314	-0.58611	0.020584	4	-0.039054	39	18.6822	-1.20645e-05
2	1	0	0	1	241.053	-0.573312	-0.573124	0.0198177	4	-0.039043	39	19.2022	-1.1358e-05
2	1	0	0	1	241.573	-0.56031	-0.560105	0.0191376	4	-0.0390323	39	19.7222	-1.07191e-05
2	1	0	1	1	242.093	-0.547309	-0.547111	0.0186295	4	-0.039022	39	20.2424	-1.01924e-05
2	1	0	1	1	242.613	-0.534307	-0.534113	0.0180981	4	-0.039012	39	20.7624	-9.66643e-06
2	1	0	1	1	243.133	-0.521306	-0.521115	0.0173632	4	-0.0390022	39	21.2824	-9.04822e-06
2	1	0	0	1	243.654	-0.508304	-0.508096	0.0170421	4	-0.0389928	39	21.8026	-8.65903e-06
2	1	0	0	1	244.174	-0.495303	-0.495099	0.0164389	4	-0.0389836	39	22.3226	-8.1389e-06
2	1	0	0	1	244.694	-0.482301	-0.482098	0.0161472	4	-0.0389747	39	22.8426	-7.78451e-06
2	1	0	1	1	245.214	-0.4693	-0.46909	0.0155742	4	-0.0389659	39	23.3628	-7.30569e-06
2	1	0	1	1	245.734	-0.456298	-0.45611	0.0152571	4	-0.0389574	39	23.8828	-6.95893e-06
2	1	0	1	1	246.254	-0.443297	-0.443098	0.0150066	4	-0.0389491	39	24.4028	-6.64942e-06
2	1	0	1	1	246.774	-0.430295	-0.430095	0.0147911	4	-0.0389408	39	24.9228	-6.36159e-06
2	1	0	0	1	247.294	-0.417294	-0.417098	0.0144913	4	-0.0389328	39	25.443	-6.04428e-06
2	1	0	0	1	247.814	-0.404292	-0.404101	0.0143612	4	-0.0389248	39	25.963	-5.80338e-06
2	1	0	0	1	248.334	-0.391291	-0.391099	0.0141985	4	-0.0389169	39	26.483	-5.55304e-06
2	1	0	1	1	248.854	-0.378289	-0.378098	0.0140425	4	-0.0389091	39	27.0032	-5.30944e-06
2	1	0	1	1	249.374	-0.365287	-0.3651	0.0139207	4	-0.0389014	39	27.5232	-5.08244e-06
2	1	0	1	1	249.894	-0.352286	-0.352105	0.0137158	4	-0.0388937	39	28.0432	-4.82939e-06
2	1	0	0	1	250.414	-0.339284	-0.339099	0.0137847	4	-0.0388861	39	28.5634	-4.67438e-06
2	1	0	0	1	250.934	-0.326283	-0.32611	0.013699	4	-0.0388785	39	29.0834	-4.46738e-06
2	1	0	0	1	251.454	-0.313281	-0.313085	0.0138546	4	-0.038871	39	29.6034	-4.33766e-06
2	1	0	1	1	251.969	-0.30043	-0.300268	0.0137297	4	-0.0388635	39	30.1176	-4.12258e-06
2	1	0	0	1	252.447	-0.311581	-0.311395	0.0111347	4	-0.038858	39	30.5962	-3.46728e-06
2	1	0	0	1	252.967	-0.324583	-0.324407	0.00969767	4	-0.038853	39	31.1162	-3.14599e-06
2	1	0	0	1	253.487	-0.337584	-0.337396	0.00863059	4	-0.0388487	39	31.6362	-2.91193e-06
2	1	0	1	1	254.007	-0.350586	-0.350417	0.00771483	4	-0.0388449	39	32.1564	-2.70341e-06
2	1	0	1	1	254.527	-0.363587	-0.363407	0.00694214	4	-0.0388415	39	32.6764	-2.52282e-06
2	1	0	1	1	255.047	-0.376589	-0.376395	0.00631605	4	-0.0388385	39	33.1964	-2.37733e-06
2	1	0	0	1	255.568	-0.38959	-0.389386	0.00583728	4	-0.0388358	39	33.7166	-2.27296e-06
2	1	0	0	1	256.088	-0.402592	-0.4024	0.00522465	4	-0.0388333	39	34.2366	-2.1024e-06
2	1	0	0	1	256.608	-0.415593	-0.415395	0.00490713	4	-0.0388311	39	34.7566	-2.0384e-06
2	1	0	1	1	257.128	-0.428595	-0.428401	0.00450933	4	-0.0388291	39	35.2768	-1.9318e-06
2	1	0	1	1	257.648	-0.441597	-0.441418	0.00408816	4	-0.0388273	39	35.7968	-1.80459e-06
2	1	0	1	1	258.168	-0.454598	-0.454432	0.00385444	4	-0.0388257	39	36.3168	-1.75158e-06
2	1	0	1	1	258.688	-0.4676	-0.467407	0.00355698	4	-0.0388242	39	36.8368	-1.66256e-06
2	1	0	0	1	259.208	-0.480601	-0.480411	0.00320853	4	-0.0388229	39	37.357	-1.54141e-06
2	1	0	0	1	259.728	-0.493603	-0.493386	0.00309261	4	-0.0388217	39	37.877	-1.52585e-06
2	1	0	0	1	260.248	-0.506604	-0.506406	0.00283505	4	-0.0388206	39	38.397	-1.43569e-06
2	1	0	1	1	260.768	-0.519606	-0.519407	0.00256544	4	-0.0388197	39	38.9172	-1.33251e-06
2	1	0	1	1	261.288	-0.532607	-0.532412	0.00237091	4	-0.0388189	39	39.4372	-1.2623e-06
2	1	0	1	1	261.808	-0.545609	-0.545409	0.00232818	4	-0.0388181	39	39.9572	-1.26981e-06
2	1	0	0	1	262.328	-0.55861	-0.55842	0.00212232	4	-0.0388175	39	40.4774	-1.18515e-06
2	1	0	0	1	262.848	-0.571612	-0.571407	0.00187633	4	-0.038817	39	40.9974	-1.07215e-06
2	1	0	0	1	263.368	-0.584613	-0.584422	0.00175144	4	-0.0388165	39	41.5174	-1.02358e-06
2	1	0	1	1	263.888	-0.597615	-0.597418	0.00151691	4	-0.0388162	39	42.0375	-9.0623e-07
2	1	0	1	1	264.409	-0.610616	-0.610423	0.0015104	4	-0.0388159	39	42.5576	-9.21984e-07
2	0	0	1	1	264.929	-0.623618	-0.623406	0.00127361	4	-0.0388158	39	43.0776	-7.93978e-07
2	1	0	1	1	265.449	-0.63662	-0.636446	0.00099008	4	-0.0388157	39	0.000000000000000E+000	-6.30132e-07
2	0	0	0	1	265.969	-0.649621	-0.64944	0.000891399	4	-0.0388158	39	0.3601	-5.7891e-07
2	1	0	0	1	266.489	-0.662623	-0.662412	0.000777608	4	-0.0388159	39	0.8801	-5.15097e-07
2	1	0	0	1	267.009	-0.675624	-0.675437	0.000530196	4	-0.0388162	39	1.4001	-3.58114e-07
2	0	0	1	1	267.529	-0.688626	-0.688427	0.000200155	4	-0.0388166	39	1.9203	-1.37792e-07
2	0	0	1	1	268.049	-0.701627	-0.701431	-0.000200473	4	-0.0388171	39	2.4403	1.40618e-07
2	0	0	1	1	268.569	-0.714629	-0.714441	-0.000407752	4	-0.0388178	39	2.9603	2.91315e-07
2	0	0	0	1	269.089	-0.72763	-0.727411	-0.000706866	4	-0.0388187	39	3.4805	5.14182e-07
2	0	0	0	1	269.609	-0.740632	-0.74043	-0.00115872	4	-0.0388198	39	4.0005	8.57954e-07
2	0	0	0	1	270.129	-0.753633	-0.753447	-0.00167668	4	-0.0388212	39	4.5205	1.26329e-06
2	0	0	0	1	270.649	-0.766635	-0.766422	-0.00240263	4	-0.0388229	39	5.0405	1.84143e-06
2	0	0	1	1	271.169	-0.779636	-0.779442	-0.00331414	4	-0.0388249	39	5.5607	2.58318e-06
2	0	0	1	1	271.689	-0.792638	-0.792437	-0.00425398	4	-0.0388275	39	6.0807	3.37101e-06
2	0	0	1	1	272.209	-0.805639	-0.805433	-0.00553164	4	-0.0388307	39	6.6007	4.45537e-06
2	0	0	0	1	272.73	-0.818641	-0.81846	-0.0070749	4	-0.0388346	39	7.1209	5.79052e-06
2	0	0	0	1	273.25	-0.831643	-0.831455	-0.00866585	4	-0.0388394	39	7.6409	7.20526e-06
2	0	0	0	1	273.77	-0.844644	-0.844436	-0.0105528	4	-0.0388451	39	8.1609	8.9112e-06
2	0	0	1	1	274.29	-0.857646	-0.857454	-0.0119127	4	-0.0388517	39	8.6811	1.02146e-05
2	0	0	1	1	274.81	-0.870647	-0.870469	-0.0128006	4	-0.0388588	39	9.2011	1.11425e-05
2	0	0	1	1	275.33	-0.883649	-0.883449	-0.0131245	4	-0.0388663	39	9.7211	1.15948e-05
2	0	0	0	1	275.85	-0.89665	-0.896471	-0.0128586	4	-0.0388737	39	10.2413	1.15274e-05
2	0	0	0	1	276.37	-0.909652	-0.909455	-0.0124745	4	-0.038881	39	10.7613	1.1345e-05
2	0	0	0	1	276.89	-0.922653	-0.922445	-0.0121169	4	-0.038888	39	11.2813	1.11771e-05
2	0	0	0	1	277.41	-0.935655	-0.935471	-0.0118791	4	-0.0388949	39	11.8013	1.11126e-05
2	0	0	1	1	277.93	-0.948656	-0.94848	-0.0119589	4	-0.0389018	39	12.3215	1.13428e-05
2	0	0	1	1	278.45	-0.961658	-0.961461	-0.0126667	4	-0.0389088	39	12.8415	1.21785e-05
2	0	0	1	1	278.97	-0.974659	-0.974479	-0.0134566	4	-0.0389163	39	13.3615	1.31132e-05
2	0	0	0	1	279.49	-0.987661	-0.987476	-0.0145752	4	-0.0389243	39	13.8817	1.43926e-05
2	0	0	0	1	280.01	-1.00066	-1.00046	-0.0160429	4	-0.0389329	39	14.4017	1.60503e-05
2	0	0	0	1	280.53	-1.01366	-1.01348	-0.017598	4	-0.0389424	39	14.9217	1.78351e-05
2	0	0	1	1	281.051	-1.02667	-1.02647	-0.0196363	4	-0.0389528	39	15.4419	2.01561e-05
2	0	0	1	1	281.571	-1.03967	-1.03948	-0.021473	4	-0.0389642	39	15.9619	2.23208e-05
2	0	0	1	1	282.091	-1.05267	-1.0525	-0.0236702	4	-0.0389766	39	16.4819	2.49129e-05
2	0	0	0	1	282.611	-1.06567	-1.06549	-0.0264755	4	-0.0389903	39	17.0021	2.82095e-05
2	0	0	0	1	283.131	-1.07867	-1.07847	-0.0315227	4	-0.039006	39	17.5221	3.39964e-05
2	0	0	0	1	283.651	-1.09167	-1.0915	-0.0399342	4	-0.0390252	39	18.0421	4.35882e-05
2	0	0	0	1	284.171	-1.10467	-1.1045	-0.052811	4	-0.0390499	39	18.5621	5.83295e-05
2	0	0	1	1	284.691	-1.11768	-1.11749	-0.0702659	4	-0.0390824	39	19.0823	7.85217e-05
2	0	0	1	1	285.211	-1.13068	-1.13048	-0.0900607	4	-0.0391249	39	19.6023	0.000101812
2	0	0	1	1	285.731	-1.14368	-1.1435	-0.100066	4	-0.0391757	39	20.1223	0.000114425
2	0	0	0	1	286.251	-1.15668	-1.1565	-0.0998932	4	-0.0392288	39	20.6425	0.000115526
2	0	0	0	1	286.771	-1.16968	-1.1695	-0.100243	4	-0.0392815	39	21.1625	0.000117233
2	0	0	0	1	287.291	-1.18268	-1.18249	-0.104479	4	-0.0393354	39	21.6825	0.000123545
2	0	0	1	1	287.811	-1.19569	-1.19551	-0.112367	4	-0.0393924	39	22.2027	0.000134336
2	0	0	1	1	288.331	-1.20869	-1.2085	-0.124484	4	-0.0394545	39	22.7227	0.000150439
2	0	0	1	1	288.851	-1.22169	-1.22149	-0.140903	4	-0.0395241	39	23.2427	0.000172112
2	0	0	0	1	289.372	-1.23469	-1.23447	-0.163209	4	-0.0396038	39	23.7629	0.000201477
2	0	0	0	1	289.892	-1.24769	-1.24751	-0.192657	4	-0.0396968	39	24.2829	0.000240341
2	0	0	0	1	290.412	-1.26069	-1.26049	-0.230929	4	-0.0398073	39	24.8029	0.000291084
2	0	0	0	1	290.932	-1.27369	-1.27351	-0.281813	4	-0.0399409	39	25.3229	0.00035889
2	0	0	1	1	291.452	-1.2867	-1.2865	-0.349606	4	-0.0401053	39	25.8431	0.000449769
2	0	0	1	1	291.972	-1.2997	-1.2995	-0.437498	4	-0.0403099	39	26.3631	0.00056853
2	0	0	1	1	292.492	-1.3127	-1.3125	-0.553024	4	-0.040567	39	26.8831	0.000725842
2	0	0	0	1	293.012	-1.3257	-1.32549	-0.702158	4	-0.0408928	39	27.4033	0.000930704
2	0	0	0	1	293.532	-1.3387	-1.33847	-0.892641	4	-0.0413064	39	27.9233	0.00119477
2	0	0	0	1	293.982	-1.34995	-1.34974	-1.10238	4	-0.0417538	39	28.3733	0.00148793