File: Fig 2/Fig 2_np-Fe2O3_5mvs.mpt
mode	ox/red	error	control changes	counter inc.	time/s	control/V	Ewe/V	<I>/mA	cycle number	(Q-Qo)/C	I Range	step time/s	P/W
2	1	0	1	0	0.000000000000000E+000	-0.300043	-0.300155	0.19903	1	0.0000000E+000	39	0.000000000000000E+000	-5.97399e-05
2	1	0	1	0	0.355	-0.303593	-0.303738	0.00967261	1	8.82279e-06	39	0.3	-2.93794e-06
2	1	0	1	0	0.755	-0.307592	-0.307744	0.00603586	1	1.16996e-05	39	0.7	-1.8575e-06
2	1	0	0	0	1.1548	-0.311591	-0.311725	0.00489077	1	1.37493e-05	39	1.0998	-1.52458e-06
2	1	0	0	0	1.5548	-0.315591	-0.315738	0.00428772	1	1.54634e-05	39	1.4998	-1.35379e-06
2	1	0	0	0	1.9548	-0.31959	-0.319716	0.00394845	1	1.69984e-05	39	1.8998	-1.26238e-06
2	1	0	1	0	2.3546	-0.323589	-0.323737	0.00353506	1	1.83729e-05	39	2.2996	-1.14443e-06
2	1	0	1	0	2.7546	-0.327588	-0.327724	0.00340608	1	1.96776e-05	39	2.6996	-1.11626e-06
2	1	0	1	0	3.1546	-0.331588	-0.331711	0.00329717	1	2.09054e-05	39	3.0996	-1.09371e-06
2	1	0	0	0	3.5544	-0.335587	-0.335709	0.00310006	1	2.20774e-05	39	3.4994	-1.04072e-06
2	1	0	0	0	3.9544	-0.339586	-0.339699	0.00306479	1	2.32163e-05	39	3.8994	-1.04111e-06
2	1	0	0	0	4.3544	-0.343586	-0.343679	0.0030117	1	2.42976e-05	39	4.2994	-1.03506e-06
2	1	0	1	0	4.7542	-0.347585	-0.347689	0.00283379	1	2.53676e-05	39	4.6992	-9.85277e-07
2	1	0	1	0	5.1542	-0.351584	-0.351708	0.00276286	1	2.64011e-05	39	5.0992	-9.71722e-07
2	1	0	1	0	5.5542	-0.355584	-0.355718	0.00274825	1	2.74367e-05	39	5.4992	-9.77604e-07
2	1	0	0	0	5.954	-0.359583	-0.35969	0.0027912	1	2.8419e-05	39	5.899	-1.00397e-06
2	1	0	0	0	6.354	-0.363582	-0.363673	0.00275749	1	2.94038e-05	39	6.299	-1.00283e-06
2	1	0	0	0	6.754	-0.367582	-0.367673	0.00273578	1	3.03807e-05	39	6.699	-1.00587e-06
2	1	0	1	0	7.1538	-0.371581	-0.371684	0.00266966	1	3.13537e-05	39	7.0988	-9.92269e-07
2	1	0	1	0	7.5538	-0.37558	-0.375678	0.00261506	1	3.23254e-05	39	7.4988	-9.82421e-07
2	1	0	1	0	7.9538	-0.37958	-0.379675	0.00259772	1	3.32655e-05	39	7.8988	-9.86291e-07
2	1	0	0	0	8.3536	-0.383579	-0.383697	0.00256122	1	3.41792e-05	39	8.2986	-9.82731e-07
2	1	0	0	0	8.7536	-0.387578	-0.387668	0.00254519	1	3.50873e-05	39	8.6986	-9.8669e-07
2	1	0	0	0	9.1536	-0.391577	-0.391684	0.00260338	1	3.59985e-05	39	9.0986	-1.0197e-06
2	1	0	1	0	9.5534	-0.395577	-0.395702	0.00254354	1	3.69165e-05	39	9.4984	-1.00649e-06
2	1	0	1	0	9.9534	-0.399576	-0.399652	0.00244169	1	3.78209e-05	39	9.8984	-9.75828e-07
2	1	0	1	0	10.3533	-0.403575	-0.403694	0.00257741	1	3.87135e-05	39	10.2983	-1.04049e-06
2	1	0	0	0	10.7532	-0.407575	-0.407682	0.00242005	1	3.95972e-05	39	10.6982	-9.86612e-07
2	1	0	0	0	11.1532	-0.411574	-0.411683	0.00242843	1	4.04499e-05	39	11.0982	-9.99745e-07
2	1	0	1	0	11.5531	-0.415574	-0.415679	0.00246769	1	4.13153e-05	39	11.4981	-1.02577e-06
2	1	0	1	0	11.953	-0.419573	-0.419683	0.00237537	1	4.21617e-05	39	11.898	-9.96902e-07
2	1	0	1	0	12.353	-0.423572	-0.423686	0.00238547	1	4.29968e-05	39	12.298	-1.01069e-06
2	1	0	1	0	12.7529	-0.427572	-0.42768	0.00248357	1	4.38498e-05	39	12.6979	-1.06217e-06
2	1	0	0	0	13.1528	-0.431571	-0.431674	0.00238401	1	4.46855e-05	39	13.0978	-1.02912e-06
2	1	0	0	0	13.5528	-0.43557	-0.435693	0.00249855	1	4.55272e-05	39	13.4978	-1.0886e-06
2	1	0	1	0	13.9526	-0.439569	-0.439673	0.00232337	1	4.63829e-05	39	13.8976	-1.02152e-06
2	0	0	1	0	14.3526	-0.443568	-0.443685	0.00242075	1	4.72106e-05	39	14.2976	-1.07405e-06
2	1	0	1	0	14.7526	-0.447568	-0.447692	0.00237273	1	4.80453e-05	39	14.6976	-1.06225e-06
2	1	0	0	0	15.1524	-0.451567	-0.451699	0.00228303	1	4.88463e-05	39	15.0974	-1.03124e-06
2	1	0	0	0	15.5524	-0.455566	-0.455683	0.00238763	1	4.96335e-05	39	15.4974	-1.088e-06
2	1	0	0	0	15.9524	-0.459566	-0.45968	0.00227812	1	5.04314e-05	39	15.8974	-1.04721e-06
2	1	0	1	0	16.3522	-0.463565	-0.463687	0.00228838	1	5.12126e-05	39	16.2972	-1.06109e-06
2	1	0	1	0	16.7522	-0.467564	-0.467653	0.00227765	1	5.19925e-05	39	16.6972	-1.06515e-06
2	1	0	1	0	17.1522	-0.471564	-0.47167	0.00222835	1	5.27728e-05	39	17.0972	-1.05105e-06
2	1	0	0	0	17.552	-0.475563	-0.475662	0.00232586	1	5.35532e-05	39	17.497	-1.10632e-06
2	1	0	0	0	17.952	-0.479562	-0.479666	0.00234204	1	5.43364e-05	39	17.897	-1.1234e-06
2	1	0	0	0	18.352	-0.483562	-0.483671	0.00205978	1	5.51014e-05	39	18.297	-9.96255e-07
2	1	0	1	0	18.7518	-0.487561	-0.487664	0.00228103	1	5.58576e-05	39	18.6968	-1.11238e-06
2	1	0	1	0	19.1518	-0.49156	-0.491663	0.00219561	1	5.66132e-05	39	19.0968	-1.0795e-06
2	1	0	1	0	19.5518	-0.49556	-0.495627	0.0021887	1	5.73643e-05	39	19.4968	-1.08478e-06
2	1	0	0	0	19.9516	-0.499559	-0.499659	0.00210139	1	5.81099e-05	39	19.8966	-1.04998e-06
2	1	0	0	0	20.3516	-0.503558	-0.503679	0.00208545	1	5.88358e-05	39	20.2966	-1.0504e-06
2	1	0	0	0	20.7516	-0.507557	-0.507667	0.0022079	1	5.95739e-05	39	20.6966	-1.12088e-06
2	1	0	1	0	21.1514	-0.511557	-0.51166	0.00212823	1	6.03158e-05	39	21.0964	-1.08893e-06
2	1	0	1	0	21.5514	-0.515556	-0.51563	0.00207617	1	6.1041e-05	39	21.4964	-1.07054e-06
2	1	0	1	0	21.9514	-0.519555	-0.519626	0.00213945	1	6.17797e-05	39	21.8964	-1.11172e-06
2	0	0	0	0	22.3512	-0.523555	-0.523636	0.0021234	1	6.25034e-05	39	22.2962	-1.11189e-06
2	1	0	0	0	22.7512	-0.527554	-0.527666	0.00217425	1	6.32281e-05	39	22.6962	-1.14728e-06
2	1	0	1	0	23.1511	-0.531553	-0.531627	0.00211703	1	6.3964e-05	39	23.0961	-1.12547e-06
2	1	0	1	0	23.551	-0.535553	-0.53564	0.0020268	1	6.46787e-05	39	23.496	-1.08564e-06
2	1	0	1	0	23.951	-0.539552	-0.539617	0.00212487	1	6.53964e-05	39	23.896	-1.14662e-06
2	0	0	1	0	24.3509	-0.543552	-0.543631	0.00208616	1	6.60947e-05	39	24.2959	-1.1341e-06
2	1	0	0	0	24.7508	-0.547551	-0.547645	0.00203321	1	6.67889e-05	39	24.6958	-1.11348e-06
2	0	0	0	0	25.1508	-0.55155	-0.551649	0.00203271	1	6.74866e-05	39	25.0958	-1.12134e-06
2	1	0	1	0	25.5506	-0.555549	-0.55563	0.00210391	1	6.81687e-05	39	25.4956	-1.169e-06
2	0	0	1	0	25.9506	-0.559549	-0.559628	0.00190202	1	6.88493e-05	39	25.8956	-1.06443e-06
2	1	0	1	0	26.3506	-0.563548	-0.56364	0.00193966	1	6.95075e-05	39	26.2956	-1.09327e-06
2	0	0	0	0	26.7504	-0.567547	-0.567643	0.00202126	1	7.01879e-05	39	26.6954	-1.14735e-06
2	0	0	0	0	27.1504	-0.571546	-0.571644	0.00196676	1	7.08343e-05	39	27.0954	-1.12429e-06
2	1	0	0	0	27.5504	-0.575546	-0.575652	0.00203855	1	7.14994e-05	39	27.4954	-1.1735e-06
2	0	0	1	0	27.9502	-0.579545	-0.579635	0.00197663	1	7.21312e-05	39	27.8952	-1.14573e-06
2	1	0	1	0	28.3502	-0.583544	-0.58363	0.001953	1	7.27806e-05	39	28.2952	-1.13983e-06
2	1	0	1	0	28.7502	-0.587544	-0.587622	0.00196815	1	7.34175e-05	39	28.6952	-1.15653e-06
2	1	0	0	0	29.15	-0.591543	-0.591609	0.0019455	1	7.40592e-05	39	29.095	-1.15097e-06
2	1	0	0	0	29.55	-0.595542	-0.595608	0.00183726	1	7.46803e-05	39	29.495	-1.09428e-06
2	1	0	0	0	29.95	-0.599542	-0.599621	0.00190421	1	7.53051e-05	39	29.895	-1.14181e-06
2	1	0	1	0	30.3498	-0.603541	-0.603623	0.00204316	1	7.59522e-05	39	30.2948	-1.2333e-06
2	1	0	1	0	30.7498	-0.60754	-0.607612	0.00183449	1	7.65878e-05	39	30.6948	-1.11466e-06
2	1	0	1	0	31.1498	-0.611539	-0.611624	0.00182539	1	7.72214e-05	39	31.0948	-1.11645e-06
2	1	0	0	0	31.5496	-0.615539	-0.615633	0.00188458	1	7.78326e-05	39	31.4946	-1.16021e-06
2	1	0	0	0	31.9496	-0.619538	-0.619624	0.00202475	1	7.84821e-05	39	31.8946	-1.25458e-06
2	1	0	0	0	32.3496	-0.623537	-0.623613	0.00207452	1	7.91319e-05	39	32.2946	-1.2937e-06
2	1	0	1	0	32.7494	-0.627537	-0.627621	0.00193171	1	7.97671e-05	39	32.6944	-1.21238e-06
2	1	0	1	0	33.1494	-0.631536	-0.631627	0.00190737	1	8.03793e-05	39	33.0944	-1.20475e-06
2	1	0	1	0	33.5493	-0.635534	-0.635628	0.00184085	1	8.0981e-05	39	33.4943	-1.17009e-06
2	1	0	0	0	33.9492	-0.639535	-0.639615	0.00182147	1	8.15636e-05	39	33.8942	-1.16504e-06
2	1	0	0	0	34.3492	-0.643534	-0.643626	0.00189555	1	8.21378e-05	39	34.2942	-1.22003e-06
2	1	0	1	0	34.7491	-0.647533	-0.647627	0.0018289	1	8.27313e-05	39	34.6941	-1.18445e-06
2	1	0	1	0	35.149	-0.651533	-0.651626	0.00187077	1	8.33101e-05	39	35.094	-1.21904e-06
2	0	0	1	0	35.549	-0.655532	-0.655634	0.00182549	1	8.39059e-05	39	35.494	-1.19686e-06
2	1	0	1	0	35.9489	-0.659532	-0.659635	0.0016802	1	8.44867e-05	39	35.8939	-1.10832e-06
2	1	0	0	0	36.3488	-0.663531	-0.66362	0.00184128	1	8.506e-05	39	36.2938	-1.22191e-06
2	1	0	0	0	36.7488	-0.66753	-0.667602	0.00181005	1	8.56326e-05	39	36.6938	-1.20839e-06
2	1	0	1	0	37.1486	-0.671529	-0.671596	0.00173144	1	8.61982e-05	39	37.0936	-1.16283e-06
2	1	0	1	0	37.5486	-0.675528	-0.675585	0.00167995	1	8.67218e-05	39	37.4936	-1.13495e-06
2	0	0	1	0	37.9486	-0.679528	-0.679601	0.00171705	1	8.72682e-05	39	37.8936	-1.16691e-06
2	0	0	0	0	38.3484	-0.683527	-0.6836	0.00180052	1	8.78226e-05	39	38.2934	-1.23083e-06
2	1	0	0	0	38.7484	-0.687526	-0.687592	0.00176361	1	8.83763e-05	39	38.6934	-1.21265e-06
2	1	0	0	0	39.1484	-0.691526	-0.691572	0.0016071	1	8.88909e-05	39	39.0934	-1.11143e-06
2	1	0	1	0	39.5482	-0.695525	-0.695589	0.00162086	1	8.94033e-05	39	39.4932	-1.12745e-06
2	1	0	1	0	39.9482	-0.699524	-0.699589	0.00167735	1	8.99131e-05	39	39.8932	-1.17345e-06
2	1	0	1	0	40.3482	-0.703524	-0.703605	0.00158395	1	9.04075e-05	39	40.2932	-1.11447e-06
2	1	0	0	0	40.748	-0.707523	-0.707603	0.0016185	1	9.08946e-05	39	40.693	-1.14526e-06
2	1	0	0	0	41.148	-0.711522	-0.711587	0.00150013	1	9.13649e-05	39	41.093	-1.06748e-06
2	1	0	0	0	41.548	-0.715522	-0.715605	0.00163893	1	9.18395e-05	39	41.493	-1.17282e-06
2	1	0	1	0	41.9478	-0.719521	-0.71958	0.00156944	1	9.23193e-05	39	41.8928	-1.12934e-06
2	1	0	1	0	42.3478	-0.72352	-0.723605	0.0015026	1	9.27757e-05	39	42.2928	-1.08729e-06
2	1	0	1	0	42.7478	-0.72752	-0.727594	0.00157703	1	9.32497e-05	39	42.6928	-1.14744e-06
2	1	0	0	0	43.1476	-0.731519	-0.731622	0.00150365	1	9.37118e-05	39	43.0926	-1.1001e-06
2	1	0	0	0	43.5476	-0.735518	-0.735609	0.00147738	1	9.41634e-05	39	43.4926	-1.08677e-06
2	1	0	0	0	43.9476	-0.739517	-0.739587	0.0014487	1	9.46047e-05	39	43.8926	-1.07144e-06
2	1	0	1	0	44.3474	-0.743517	-0.743595	0.00148871	1	9.50313e-05	39	44.2924	-1.107e-06
2	1	0	1	0	44.7474	-0.747516	-0.747613	0.00141517	1	9.54439e-05	39	44.6924	-1.058e-06
2	1	0	1	0	45.1474	-0.751515	-0.751598	0.00147389	1	9.58565e-05	39	45.0924	-1.10777e-06
2	1	0	0	0	45.5472	-0.755515	-0.755608	0.00146646	1	9.62698e-05	39	45.4922	-1.10807e-06
2	1	0	0	0	45.9472	-0.759514	-0.759602	0.00142949	1	9.66863e-05	39	45.8922	-1.08584e-06
2	1	0	1	0	46.3471	-0.763513	-0.763586	0.0013275	1	9.70839e-05	39	46.2921	-1.01366e-06
2	0	0	1	0	46.747	-0.767513	-0.767612	0.00142539	1	9.74716e-05	39	46.692	-1.09414e-06
2	1	0	1	0	47.147	-0.771512	-0.771593	0.00135387	1	9.788e-05	39	47.092	-1.04464e-06
2	1	0	0	0	47.5468	-0.775511	-0.775592	0.00139155	1	9.82714e-05	39	47.4918	-1.07928e-06
2	1	0	0	0	47.9468	-0.77951	-0.779603	0.00143047	1	9.86704e-05	39	47.8918	-1.11519e-06
2	1	0	0	0	48.3468	-0.78351	-0.783589	0.00128291	1	9.90527e-05	39	48.2918	-1.00527e-06
2	1	0	1	0	48.7466	-0.787509	-0.787596	0.00137271	1	9.94152e-05	39	48.6916	-1.08114e-06
2	0	0	1	0	49.1466	-0.791508	-0.791591	0.00125552	1	9.97611e-05	39	49.0916	-9.93858e-07
2	1	0	1	0	49.5466	-0.795508	-0.79558	0.00116146	1	0.000100099	39	49.4916	-9.24032e-07
2	1	0	0	0	49.9464	-0.799507	-0.799587	0.0011834	1	0.000100416	39	49.8914	-9.46233e-07
2	1	0	0	0	50.3464	-0.803506	-0.803558	0.00104572	1	0.000100716	39	50.2914	-8.40298e-07
2	1	0	0	0	50.7464	-0.807506	-0.807551	0.000993366	1	0.000100996	39	50.6914	-8.02194e-07
2	1	0	1	0	51.1462	-0.811505	-0.811593	0.00111212	1	0.000101258	39	51.0912	-9.02592e-07
2	1	0	1	0	51.5462	-0.815504	-0.815579	0.00104847	1	0.000101506	39	51.4912	-8.55114e-07
2	1	0	1	0	51.9462	-0.819504	-0.819564	0.00101864	1	0.000101746	39	51.8912	-8.34842e-07
2	1	0	0	0	52.346	-0.823503	-0.823561	0.000793992	1	0.000101955	39	52.291	-6.53901e-07
2	1	0	0	0	52.746	-0.827502	-0.827552	0.000887352	1	0.000102146	39	52.691	-7.3433e-07
2	1	0	0	0	53.146	-0.831502	-0.831579	0.000855947	1	0.000102336	39	53.091	-7.11787e-07
2	1	0	1	0	53.5458	-0.835501	-0.835571	0.000795783	1	0.000102477	39	53.4908	-6.64933e-07
2	1	0	1	0	53.9458	-0.8395	-0.839589	0.000780094	1	0.000102623	39	53.8908	-6.54958e-07
2	1	0	1	0	54.3458	-0.8435	-0.843571	0.000725505	1	0.000102738	39	54.2908	-6.12015e-07
2	1	0	0	0	54.7456	-0.847499	-0.847555	0.00068617	1	0.00010284	39	54.6906	-5.81566e-07
2	1	0	0	0	55.1456	-0.851498	-0.85154	0.000658338	1	0.000102941	39	55.0906	-5.60601e-07
2	1	0	0	0	55.5456	-0.855497	-0.855543	0.000527504	1	0.000103009	39	55.4906	-4.51302e-07
2	1	0	1	0	55.9454	-0.859497	-0.859558	0.000505414	1	0.000103062	39	55.8904	-4.34433e-07
2	1	0	1	0	56.3454	-0.863496	-0.863552	0.000484725	1	0.000103096	39	56.2904	-4.18585e-07
2	1	0	1	0	56.7454	-0.867496	-0.867552	0.000571011	1	0.000103115	39	56.6904	-4.95382e-07
2	1	0	0	0	57.1452	-0.871495	-0.87156	0.000490272	1	0.000103105	39	0.2	-4.27302e-07
2	1	0	0	0	57.5452	-0.875494	-0.875554	0.000279116	1	0.000103074	39	0.6	-2.44381e-07
2	0	0	1	0	57.9451	-0.879493	-0.879557	0.000305464	1	0.000103008	39	0.9999	-2.68673e-07
2	1	0	1	0	58.345	-0.883493	-0.883569	0.000149518	1	0.000102913	39	1.3998	-1.32109e-07
2	1	0	1	0	58.745	-0.887492	-0.887566	0.000169085	1	0.000102807	39	1.7998	-1.50074e-07
2	1	0	1	0	59.1449	-0.891491	-0.891577	0.000147779	1	0.000102674	39	2.1997	-1.31756e-07
2	1	0	0	0	59.5448	-0.895491	-0.895555	-5.19227e-05	1	0.000102515	39	2.5996	4.64996e-08
2	1	0	0	0	59.9448	-0.89949	-0.899548	-0.000114736	1	0.000102315	39	2.9996	1.0321e-07
2	1	0	1	0	60.3447	-0.90349	-0.90355	-0.000217573	1	0.000102065	39	3.3995	1.96588e-07
2	1	0	1	0	60.7446	-0.907488	-0.907557	-0.000322128	1	0.000101788	39	3.7994	2.92349e-07
2	1	0	1	0	61.1446	-0.911488	-0.911542	-0.000440405	1	0.000101444	39	4.1994	4.01448e-07
2	0	0	0	0	61.5444	-0.915487	-0.915536	-0.000565726	1	0.000101051	39	4.5992	5.17943e-07
2	1	0	0	0	61.9444	-0.919486	-0.919543	-0.000684279	1	0.000100609	39	4.9992	6.29225e-07
2	0	0	0	0	62.3444	-0.923486	-0.923556	-0.000875827	1	0.000100108	39	5.3992	8.08876e-07
2	0	0	1	0	62.7442	-0.927485	-0.927532	-0.00115465	1	9.95231e-05	39	5.799	1.07097e-06
2	1	0	1	0	63.1442	-0.931484	-0.931542	-0.00129048	1	9.88743e-05	39	6.199	1.20214e-06
2	1	0	1	0	63.5442	-0.935484	-0.93554	-0.00154376	1	9.81324e-05	39	6.599	1.44425e-06
2	0	0	0	0	63.944	-0.939483	-0.939517	-0.00183535	1	9.72829e-05	39	6.9988	1.72434e-06
2	0	0	0	0	64.344	-0.943482	-0.943553	-0.00221011	1	9.63148e-05	39	7.3988	2.08536e-06
2	0	0	0	0	64.744	-0.947482	-0.947531	-0.00236094	1	9.52175e-05	39	7.7988	2.23706e-06
2	0	0	1	0	65.1438	-0.951481	-0.951534	-0.00270899	1	9.40158e-05	39	8.1986	2.5777e-06
2	0	0	1	0	65.5438	-0.95548	-0.955516	-0.00313638	1	9.26489e-05	39	8.5986	2.99686e-06
2	0	0	1	0	65.9438	-0.95948	-0.959518	-0.00362544	1	9.11141e-05	39	8.9986	3.47868e-06
2	0	0	0	0	66.3436	-0.963479	-0.963509	-0.00406831	1	8.93665e-05	39	9.3984	3.91985e-06
2	0	0	0	0	66.7436	-0.967478	-0.967516	-0.00474486	1	8.73995e-05	39	9.7984	4.59073e-06
2	0	0	0	0	67.1436	-0.971478	-0.971507	-0.00538386	1	8.51893e-05	39	10.1984	5.23046e-06
2	0	0	1	0	67.5434	-0.975477	-0.975522	-0.00613234	1	8.2702e-05	39	10.5982	5.98223e-06
2	0	0	1	0	67.9434	-0.979476	-0.979516	-0.00682623	1	7.99068e-05	39	10.9982	6.6864e-06
2	0	0	1	0	68.3434	-0.983475	-0.983507	-0.00772324	1	7.67992e-05	39	11.3982	7.59586e-06
2	0	0	0	0	68.7432	-0.987475	-0.987545	-0.00862908	1	7.33386e-05	39	11.798	8.52161e-06
2	0	0	0	0	69.1432	-0.991474	-0.991523	-0.0094302	1	6.95166e-05	39	12.198	9.35026e-06
2	0	0	1	0	69.5431	-0.995473	-0.995522	-0.0105077	1	6.53287e-05	39	12.5979	1.04607e-05
2	0	0	1	0	69.943	-0.999473	-0.99953	-0.011551	1	6.0755e-05	39	12.9978	1.15455e-05
2	0	0	1	0	70.343	-1.00347	-1.0035	-0.0125184	1	5.57703e-05	39	13.3978	1.25623e-05
2	0	0	1	0	70.7428	-1.00747	-1.00752	-0.0136218	1	5.03729e-05	39	13.7976	1.37242e-05
2	0	0	0	0	71.1428	-1.01147	-1.01153	-0.0144867	1	4.45717e-05	39	14.1976	1.46537e-05
2	0	0	0	0	71.5428	-1.01547	-1.01551	-0.015496	1	3.83808e-05	39	14.5976	1.57363e-05
2	0	0	1	0	71.9426	-1.01947	-1.01951	-0.0165957	1	3.17727e-05	39	14.9974	1.69194e-05
2	0	0	1	0	72.3426	-1.02347	-1.0235	-0.0177093	1	2.47007e-05	39	15.3974	1.81255e-05
2	0	0	1	0	72.7426	-1.02747	-1.02752	-0.0187826	1	1.72344e-05	39	15.7974	1.92995e-05
2	0	0	0	0	73.1424	-1.03147	-1.03152	-0.0196805	1	9.35734e-06	39	16.1972	2.03008e-05
2	0	0	0	0	73.5424	-1.03547	-1.03553	-0.0206163	1	1.12284e-06	39	16.5972	2.13487e-05
2	0	0	0	0	73.9424	-1.03947	-1.03953	-0.0214382	1	-7.48728e-06	39	16.9972	2.22856e-05
2	0	0	1	0	74.3422	-1.04347	-1.04352	-0.022174	1	-1.64358e-05	39	17.397	2.31391e-05
2	0	0	1	0	74.7422	-1.04746	-1.04751	-0.0228534	1	-2.56584e-05	39	17.797	2.39391e-05
2	0	0	1	0	75.1422	-1.05146	-1.05153	-0.0234699	1	-3.51187e-05	39	18.197	2.46793e-05
2	0	0	0	0	75.542	-1.05546	-1.05551	-0.0236663	1	-4.47231e-05	39	18.5968	2.49801e-05
2	0	0	0	0	75.942	-1.05946	-1.0595	-0.0238713	1	-5.44181e-05	39	18.9968	2.52917e-05
2	0	0	0	0	76.342	-1.06346	-1.06351	-0.0239979	1	-6.42118e-05	39	19.3968	2.55219e-05
2	0	0	1	0	76.7418	-1.06746	-1.06752	-0.0240322	1	-7.4027e-05	39	19.7966	2.56547e-05
2	0	0	1	0	77.1418	-1.07146	-1.07151	-0.0240795	1	-8.38476e-05	39	20.1966	2.58013e-05
2	0	0	1	0	77.5418	-1.07546	-1.07552	-0.0239808	1	-9.36674e-05	39	20.5966	2.57918e-05
2	0	0	0	0	77.9416	-1.07946	-1.07951	-0.0237374	1	-0.000103426	39	20.9964	2.56248e-05
2	0	0	0	0	78.3416	-1.08346	-1.08351	-0.0236198	1	-0.000113131	39	21.3964	2.55922e-05
2	0	0	0	0	78.7416	-1.08746	-1.08751	-0.0236066	1	-0.000122786	39	21.7964	2.56724e-05
2	0	0	1	0	79.1414	-1.09146	-1.0915	-0.0233578	1	-0.000132353	39	22.1962	2.54951e-05
2	0	0	1	0	79.5414	-1.09546	-1.09551	-0.0236531	1	-0.000141964	39	22.5962	2.59122e-05
2	0	0	1	0	79.9414	-1.09946	-1.09952	-0.0247266	1	-0.000151786	39	22.9962	2.71875e-05
2	0	0	0	0	80.3412	-1.10345	-1.10351	-0.0266366	1	-0.000162204	39	23.396	2.93939e-05
2	0	0	0	0	80.7412	-1.10745	-1.10751	-0.0296001	1	-0.000173645	39	23.796	3.27823e-05
2	0	0	1	0	81.1411	-1.11145	-1.1115	-0.0333527	1	-0.000186425	39	24.1959	3.70717e-05
2	0	0	1	0	81.541	-1.11545	-1.1155	-0.0368971	1	-0.000200699	39	24.5958	4.11588e-05
2	0	0	1	0	81.941	-1.11945	-1.11951	-0.0405901	1	-0.000216432	39	24.9958	4.54412e-05
2	0	0	1	0	82.3409	-1.12345	-1.12352	-0.0449994	1	-0.000233759	39	25.3957	5.05578e-05
2	0	0	0	0	82.7408	-1.12745	-1.1275	-0.050686	1	-0.00025303	39	25.7956	5.71487e-05
2	0	0	0	0	83.1408	-1.13145	-1.13152	-0.0595996	1	-0.000275213	39	26.1956	6.74381e-05
2	0	0	1	0	83.5406	-1.13545	-1.1355	-0.071637	1	-0.000301565	39	26.5954	8.1344e-05
2	0	0	1	0	83.9406	-1.13945	-1.1395	-0.0867174	1	-0.000333459	39	26.9954	9.88146e-05
2	0	0	1	0	84.3406	-1.14345	-1.14352	-0.0993208	1	-0.000370937	39	27.3954	0.000113576
2	0	0	0	0	84.7404	-1.14745	-1.14751	-0.109161	1	-0.000413024	39	27.7952	0.000125264
2	0	0	0	0	85.1404	-1.15145	-1.15148	-0.11549	1	-0.000458268	39	28.1952	0.000132985
2	0	0	0	0	85.5404	-1.15545	-1.15549	-0.117324	1	-0.000505259	39	28.5952	0.000135567
2	0	0	1	0	85.9402	-1.15945	-1.15946	-0.117661	1	-0.000552471	39	28.995	0.000136423
2	0	0	1	0	86.3402	-1.16344	-1.16348	-0.11709	1	-0.000599739	39	29.395	0.000136232
2	0	0	1	0	86.7402	-1.16744	-1.1675	-0.115156	1	-0.000646474	39	29.795	0.000134445
2	0	0	0	0	87.14	-1.17144	-1.17149	-0.112882	1	-0.000692353	39	30.1948	0.00013224
2	0	0	0	0	87.54	-1.17544	-1.1755	-0.111513	1	-0.000737484	39	30.5948	0.000131083
2	0	0	0	0	87.94	-1.17944	-1.17946	-0.108933	1	-0.000781601	39	30.9948	0.000128483
2	0	0	1	0	88.3398	-1.18344	-1.18348	-0.106615	1	-0.00082484	39	31.3946	0.000126176
2	0	0	1	0	88.7398	-1.18744	-1.18748	-0.104834	1	-0.000867361	39	31.7946	0.000124488
2	0	0	1	0	89.1398	-1.19144	-1.19149	-0.102896	1	-0.00090907	39	32.1946	0.000122599
2	0	0	0	0	89.5396	-1.19544	-1.19548	-0.101993	1	-0.000950154	39	32.5944	0.00012193
2	0	0	0	0	89.9396	-1.19944	-1.19946	-0.10027	1	-0.000990936	39	32.9944	0.00012027
2	0	0	0	0	90.3396	-1.20344	-1.20346	-0.0996305	1	-0.00103104	39	33.3944	0.000119901
2	0	0	1	0	90.7394	-1.20744	-1.20746	-0.0994348	1	-0.00107107	39	33.7942	0.000120064
2	0	0	1	0	91.1394	-1.21144	-1.21146	-0.0997462	1	-0.00111113	39	34.1942	0.000120839
2	0	0	1	0	91.5393	-1.21543	-1.21547	-0.0998694	1	-0.00115125	39	34.5941	0.000121388
2	0	0	0	0	91.9392	-1.21943	-1.21945	-0.101669	1	-0.00119182	39	34.994	0.000123981
2	0	0	0	0	92.3392	-1.22343	-1.22347	-0.103996	1	-0.00123323	39	35.394	0.000127236
2	0	0	1	0	92.7391	-1.22743	-1.22747	-0.106512	1	-0.0012754	39	35.7939	0.000130741
2	0	0	1	0	93.139	-1.23143	-1.23149	-0.108937	1	-0.00131875	39	36.1938	0.000134155
2	0	0	1	0	93.539	-1.23543	-1.23549	-0.112923	1	-0.00136339	39	36.5938	0.000139515
2	0	0	1	0	93.9389	-1.23943	-1.23947	-0.118044	1	-0.00140986	39	36.9937	0.000146312
2	0	0	0	0	94.3388	-1.24343	-1.24347	-0.124525	1	-0.00145841	39	37.3936	0.000154843
2	0	0	0	0	94.7388	-1.24743	-1.24747	-0.129765	1	-0.00150937	39	37.7936	0.000161877
2	0	0	1	0	95.1386	-1.25143	-1.25149	-0.138235	1	-0.00156328	39	38.1934	0.000172999
2	0	0	1	0	95.5386	-1.25543	-1.25547	-0.147238	1	-0.00162049	39	38.5934	0.000184852
2	0	0	1	0	95.9386	-1.25943	-1.25945	-0.157167	1	-0.0016815	39	38.9934	0.000197944
2	0	0	0	0	96.3384	-1.26343	-1.26345	-0.170202	1	-0.00174701	39	39.3932	0.000215042
2	0	0	0	0	96.7384	-1.26743	-1.26744	-0.186133	1	-0.00181897	39	39.7932	0.000235913
2	0	0	0	0	97.1384	-1.27143	-1.27146	-0.204046	1	-0.00189706	39	40.1932	0.000259437
2	0	0	1	0	97.5382	-1.27543	-1.27545	-0.22942	1	-0.00198349	39	40.593	0.000292613
2	0	0	1	0	97.9382	-1.27942	-1.27944	-0.258131	1	-0.00208079	39	40.993	0.000330263
2	0	0	1	0	98.3382	-1.28342	-1.28345	-0.300998	1	-0.00219207	39	41.393	0.000386316
2	0	0	0	0	98.738	-1.28742	-1.28745	-0.363163	1	-0.00232443	39	41.7928	0.000467553
2	0	0	0	0	99.138	-1.29142	-1.29146	-0.43275	1	-0.00248244	39	42.1928	0.000558877
2	0	0	0	0	99.538	-1.29542	-1.29545	-0.52565	1	-0.0026735	39	42.5928	0.000680951
2	0	0	1	0	99.9378	-1.29942	-1.29943	-0.648689	1	-0.00290691	39	42.9926	0.000842929
2	0	0	1	0	100.338	-1.30342	-1.30344	-0.789582	1	-0.00319376	39	43.3926	0.00102917
2	0	0	1	0	100.738	-1.30742	-1.30743	-0.985735	1	-0.00354963	39	43.7926	0.00128878
2	0	0	0	0	101.138	-1.31142	-1.31142	-1.26504	1	-0.0039992	39	44.1924	0.001659
2	0	0	0	0	101.538	-1.31542	-1.31543	-1.58194	1	-0.00456901	39	44.5924	0.00208094
2	0	0	0	0	101.938	-1.31942	-1.31943	-1.93721	1	-0.00527341	39	44.9924	0.002556
2	0	0	1	0	102.337	-1.32342	-1.32344	-2.29469	1	-0.00612339	39	45.3922	0.00303688
2	0	0	1	0	102.737	-1.32742	-1.32743	-2.63739	1	-0.00710954	39	45.7922	0.00350095
2	0	0	1	0	103.137	-1.33141	-1.33143	-2.99665	1	-0.00823395	39	46.1921	0.00398984
2	0	0	0	0	103.537	-1.33541	-1.33544	-3.34295	1	-0.00950362	39	46.592	0.00446431
2	0	0	0	0	103.937	-1.33941	-1.33945	-3.66398	1	-0.0109053	39	46.992	0.0049077
2	0	0	1	0	104.337	-1.34341	-1.34348	-3.97969	1	-0.0124368	39	47.3919	0.00534662
2	0	0	1	0	104.737	-1.34741	-1.34747	-4.28078	1	-0.0140893	39	47.7918	0.0057682
2	0	0	1	1	105.047	-1.34941	-1.34947	-4.43145	2	-0.0154505	39	48.1022	0.0059801
2	0	0	1	1	105.447	-1.34541	-1.34546	-4.21303	2	-0.0171779	39	48.5022	0.00566847
2	0	0	0	1	105.847	-1.34141	-1.34147	-3.94345	2	-0.0188066	39	48.902	0.00529
2	0	0	0	1	106.247	-1.33741	-1.33744	-3.66879	2	-0.0203286	39	49.302	0.00490679
2	0	0	0	1	106.647	-1.33342	-1.33345	-3.45909	2	-0.0217582	39	49.702	0.00461253
2	0	0	1	1	107.047	-1.32942	-1.32945	-3.21111	2	-0.0230902	39	50.1018	0.00426901
2	0	0	1	1	107.447	-1.32542	-1.32544	-2.98115	2	-0.0243274	39	50.5018	0.00395133
2	0	0	1	1	107.847	-1.32142	-1.32143	-2.81796	2	-0.0254891	39	50.9018	0.00372375
2	0	0	0	1	108.247	-1.31742	-1.31746	-2.61649	2	-0.0265763	39	51.3016	0.00344711
2	0	0	0	1	108.647	-1.31342	-1.31345	-2.42203	2	-0.0275808	39	51.7016	0.00318122
2	0	0	0	1	109.047	-1.30942	-1.30945	-2.23161	2	-0.0285101	39	52.1016	0.00292219
2	0	0	1	1	109.447	-1.30542	-1.30544	-2.0647	2	-0.0293674	39	52.5014	0.00269533
2	0	0	1	1	109.847	-1.30142	-1.30143	-1.90807	2	-0.0301623	39	52.9014	0.00248323
2	0	0	1	1	110.246	-1.29742	-1.29745	-1.76071	2	-0.0308946	39	53.3013	0.00228444
2	0	0	0	1	110.646	-1.29342	-1.29347	-1.63378	2	-0.0315733	39	53.7012	0.00211324
2	0	0	0	1	111.046	-1.28942	-1.28945	-1.51169	2	-0.0322002	39	54.1012	0.00194924
2	0	0	1	1	111.446	-1.28542	-1.28548	-1.3907	2	-0.0327794	39	54.5011	0.00178772
2	0	0	1	1	111.846	-1.28142	-1.28145	-1.28717	2	-0.0333136	39	54.901	0.00164945
2	0	0	1	1	112.246	-1.27742	-1.27745	-1.18715	2	-0.0338079	39	55.301	0.00151652
2	0	0	1	1	112.646	-1.27343	-1.27345	-1.09663	2	-0.0342634	39	55.7008	0.00139651
2	0	0	0	1	113.046	-1.26943	-1.26946	-1.01665	2	-0.034685	39	56.1008	0.00129059
2	0	0	0	1	113.446	-1.26543	-1.26547	-0.937465	2	-0.0350744	39	56.5008	0.00118633
2	0	0	1	1	113.846	-1.26143	-1.26144	-0.866795	2	-0.0354343	39	56.9006	0.00109341
2	0	0	1	1	114.246	-1.25743	-1.25745	-0.805457	2	-0.035768	39	57.3006	0.00101282
2	0	0	1	1	114.646	-1.25343	-1.25345	-0.755157	2	-0.0360807	39	57.7006	0.000946552
2	0	0	0	1	115.046	-1.24943	-1.24946	-0.701283	2	-0.0363712	39	58.1004	0.000876229
2	0	0	0	1	115.446	-1.24543	-1.24549	-0.655115	2	-0.0366413	39	58.5004	0.000815936
2	0	0	0	1	115.846	-1.24143	-1.24147	-0.607246	2	-0.0368929	39	58.9004	0.000753876
2	0	0	1	1	116.245	-1.23743	-1.23748	-0.566656	2	-0.0371267	39	59.3002	0.000701223
2	0	0	1	1	116.645	-1.23343	-1.23348	-0.529839	2	-0.0373452	39	59.7002	0.000653543
2	0	0	1	1	117.045	-1.22943	-1.22946	-0.496114	2	-0.03755	39	60.1002	0.000609953
2	0	0	0	1	117.445	-1.22543	-1.22546	-0.466633	2	-0.037742	39	60.5	0.000571838
2	0	0	0	1	117.845	-1.22143	-1.22148	-0.441605	2	-0.037923	39	60.9	0.000539413
2	0	0	0	1	118.245	-1.21744	-1.21747	-0.417096	2	-0.0380942	39	61.3	0.0005078
2	0	0	1	1	118.645	-1.21344	-1.21346	-0.393977	2	-0.0382559	39	61.6998	0.000478076
2	0	0	1	1	119.045	-1.20944	-1.20946	-0.373583	2	-0.0384091	39	62.0998	0.000451834
2	0	0	1	1	119.445	-1.20544	-1.20546	-0.355001	2	-0.0385543	39	62.4998	0.000427939
2	0	0	0	1	119.845	-1.20144	-1.20149	-0.337963	2	-0.0386924	39	62.8996	0.000406059
2	0	0	0	1	120.245	-1.19744	-1.19747	-0.321677	2	-0.0388239	39	63.2996	0.000385198
2	0	0	1	1	120.645	-1.19344	-1.19346	-0.306104	2	-0.038949	39	63.6995	0.000365323
2	0	0	1	1	121.045	-1.18944	-1.18947	-0.292601	2	-0.0390684	39	64.0994	0.00034804
2	0	0	1	1	121.445	-1.18544	-1.18546	-0.278173	2	-0.0391822	39	64.4994	0.000329763
2	0	0	1	1	121.844	-1.18144	-1.18147	-0.265264	2	-0.0392905	39	64.8993	0.000313402
2	0	0	0	1	122.244	-1.17744	-1.17748	-0.252477	2	-0.0393937	39	65.2992	0.000297288
2	0	0	0	1	122.644	-1.17344	-1.17348	-0.240347	2	-0.0394919	39	65.6992	0.000282042
2	0	0	1	1	123.044	-1.16944	-1.16947	-0.227868	2	-0.0395852	39	66.0991	0.000266483
2	0	0	1	1	123.444	-1.16544	-1.16547	-0.215796	2	-0.0396735	39	66.499	0.000251504
2	0	0	1	1	123.844	-1.16144	-1.16148	-0.203105	2	-0.0397569	39	66.899	0.000235903
2	0	0	1	1	124.244	-1.15744	-1.15747	-0.191067	2	-0.0398353	39	67.2989	0.000221154
2	0	0	0	1	124.644	-1.15345	-1.15348	-0.179519	2	-0.039909	39	67.6988	0.000207071
2	0	0	0	1	125.044	-1.14945	-1.14948	-0.167916	2	-0.0399781	39	68.0988	0.000193015
2	0	0	1	1	125.444	-1.14545	-1.14548	-0.156914	2	-0.0400427	39	68.4986	0.000179741
2	0	0	1	1	125.844	-1.14145	-1.1415	-0.146299	2	-0.0401029	39	68.8986	0.000167
2	0	0	1	1	126.244	-1.13745	-1.13749	-0.136157	2	-0.0401589	39	69.2986	0.000154878
2	0	0	0	1	126.644	-1.13345	-1.13348	-0.126035	2	-0.0402109	39	69.6984	0.000142858
2	0	0	0	1	127.044	-1.12945	-1.12949	-0.1165	2	-0.0402589	39	70.0984	0.000131585
2	0	0	0	1	127.444	-1.12545	-1.12546	-0.108045	2	-0.0403035	39	70.4984	0.0001216
2	0	0	1	1	127.843	-1.12145	-1.12147	-0.100507	2	-0.0403447	39	70.8982	0.000112716
2	0	0	1	1	128.243	-1.11745	-1.11749	-0.0929431	2	-0.040383	39	71.2982	0.000103863
2	0	0	1	1	128.643	-1.11345	-1.11347	-0.0861284	2	-0.0404184	39	71.6982	9.59012e-05
2	0	0	0	1	129.043	-1.10945	-1.10949	-0.0799434	2	-0.0404512	39	72.098	8.86962e-05
2	0	0	0	1	129.443	-1.10545	-1.10547	-0.073811	2	-0.0404815	39	72.498	8.15958e-05
2	0	0	0	1	129.843	-1.10146	-1.10147	-0.0682225	2	-0.0405095	39	72.898	7.51451e-05
2	0	0	1	1	130.243	-1.09746	-1.09747	-0.0629886	2	-0.0405354	39	73.2978	6.91284e-05
2	0	0	1	1	130.643	-1.09346	-1.09347	-0.0583346	2	-0.0405593	39	73.6978	6.3787e-05
2	0	0	1	1	131.043	-1.08946	-1.0895	-0.0536833	2	-0.0405813	39	74.0978	5.84882e-05
2	0	0	0	1	131.443	-1.08546	-1.08549	-0.049264	2	-0.0406015	39	74.4976	5.34755e-05
2	0	0	0	1	131.843	-1.08146	-1.08148	-0.0452355	2	-0.0406199	39	74.8976	4.89214e-05
2	0	0	0	1	132.243	-1.07746	-1.07748	-0.0414139	2	-0.0406368	39	75.2976	4.46228e-05
2	0	0	1	1	132.643	-1.07346	-1.07349	-0.0376583	2	-0.0406522	39	75.6974	4.04257e-05
2	0	0	1	1	133.043	-1.06946	-1.0695	-0.0341288	2	-0.0406662	39	76.0974	3.65008e-05
2	0	0	1	1	133.442	-1.06546	-1.06551	-0.0309307	2	-0.0406788	39	76.4973	3.29571e-05
2	0	0	0	1	133.842	-1.06146	-1.0615	-0.0277538	2	-0.0406902	39	76.8972	2.94606e-05
2	0	0	0	1	134.242	-1.05746	-1.0575	-0.0248206	2	-0.0407003	39	77.2972	2.62478e-05
2	0	0	1	1	134.642	-1.05346	-1.05349	-0.0219673	2	-0.0407091	39	77.697	2.31423e-05
2	0	0	1	1	135.042	-1.04946	-1.04951	-0.0188255	2	-0.0407169	39	78.097	1.97576e-05
2	0	0	1	1	135.442	-1.04546	-1.04551	-0.015904	2	-0.0407234	39	78.497	1.66278e-05
2	0	0	0	1	135.842	-1.04147	-1.04152	-0.0128982	2	-0.0407287	39	78.8968	1.34337e-05
2	0	0	0	1	136.242	-1.03747	-1.03749	-0.00968649	2	-0.0407328	39	79.2968	1.00497e-05
2	0	0	0	1	136.642	-1.03347	-1.03348	-0.00604333	2	-0.0407355	39	79.6968	6.24567e-06
2	0	0	1	1	137.042	-1.02947	-1.02951	-0.00196509	2	-0.0407366	39	80.0966	2.02308e-06
2	0	0	1	1	137.442	-1.02547	-1.02552	0.00181835	2	-0.0407361	39	0.2	-1.86474e-06
2	1	0	1	1	137.842	-1.02147	-1.02152	0.0048025	2	-0.0407343	39	0.6	-4.90584e-06
2	1	0	0	1	138.242	-1.01747	-1.0175	0.00685046	2	-0.0407314	39	0.9998	-6.97033e-06
2	1	0	0	1	138.642	-1.01347	-1.01349	0.00772237	2	-0.040728	39	1.3998	-7.82653e-06
2	1	0	0	1	139.042	-1.00947	-1.0095	0.00825672	2	-0.0407243	39	1.7998	-8.33513e-06
2	1	0	1	1	139.441	-1.00547	-1.0055	0.00864261	2	-0.0407205	39	2.1996	-8.69012e-06
2	1	0	1	1	139.841	-1.00147	-1.00152	0.00899768	2	-0.0407166	39	2.5996	-9.01138e-06
2	1	0	1	1	140.241	-0.997473	-0.997516	0.00958925	2	-0.0407125	39	2.9996	-9.56543e-06
2	1	0	0	1	140.641	-0.993474	-0.993509	0.0106297	2	-0.040708	39	3.3994	-1.05607e-05
2	1	0	0	1	141.041	-0.989474	-0.989517	0.0117551	2	-0.0407032	39	3.7994	-1.16319e-05
2	1	0	0	1	141.441	-0.985475	-0.985496	0.0129708	2	-0.0406979	39	4.1994	-1.27826e-05
2	1	0	1	1	141.841	-0.981476	-0.981534	0.0141123	2	-0.0406921	39	4.5992	-1.38517e-05
2	1	0	1	1	142.241	-0.977476	-0.977523	0.0154398	2	-0.0406858	39	4.9992	-1.50927e-05
2	1	0	1	1	142.641	-0.973477	-0.973517	0.0171752	2	-0.040679	39	5.3992	-1.67203e-05
2	1	0	0	1	143.041	-0.969478	-0.969518	0.0188832	2	-0.0406714	39	5.799	-1.83076e-05
2	1	0	0	1	143.441	-0.965479	-0.965521	0.0207755	2	-0.0406631	39	6.199	-2.00592e-05
2	1	0	1	1	143.841	-0.96148	-0.961516	0.0230854	2	-0.0406541	39	6.5989	-2.2197e-05
2	1	0	1	1	144.241	-0.95748	-0.957511	0.0255611	2	-0.040644	39	6.9988	-2.4475e-05
2	1	0	1	1	144.641	-0.953481	-0.953505	0.028059	2	-0.0406331	39	7.3988	-2.67544e-05
2	1	0	1	1	145.04	-0.949481	-0.949506	0.0307506	2	-0.040621	39	7.7987	-2.91979e-05
2	1	0	0	1	145.44	-0.945482	-0.945497	0.0336088	2	-0.0406079	39	8.1986	-3.1777e-05
2	1	0	0	1	145.84	-0.941483	-0.941524	0.0364643	2	-0.0405936	39	8.5986	-3.4332e-05
2	1	0	1	1	146.24	-0.937482	-0.937531	0.0396669	2	-0.040578	39	8.9985	-3.7189e-05
2	1	0	1	1	146.64	-0.933484	-0.933522	0.0432365	2	-0.0405611	39	9.3984	-4.03622e-05
2	1	0	1	1	147.04	-0.929485	-0.929503	0.0468872	2	-0.0405428	39	9.7984	-4.35818e-05
2	1	0	0	1	147.44	-0.925485	-0.925528	0.0507124	2	-0.040523	39	10.1982	-4.69358e-05
2	1	0	0	1	147.84	-0.921486	-0.921519	0.0544353	2	-0.0405017	39	10.5982	-5.01631e-05
2	1	0	0	1	148.24	-0.917487	-0.917511	0.0581655	2	-0.0404789	39	10.9982	-5.33675e-05
2	1	0	1	1	148.64	-0.913487	-0.913536	0.0619059	2	-0.0404546	39	11.398	-5.65533e-05
2	1	0	1	1	149.04	-0.909488	-0.909533	0.0651407	2	-0.040429	39	11.798	-5.92476e-05
2	1	0	1	1	149.44	-0.905489	-0.905499	0.0679019	2	-0.0404021	39	12.198	-6.14851e-05
2	1	0	0	1	149.84	-0.90149	-0.90151	0.0702212	2	-0.0403741	39	12.5978	-6.33051e-05
2	1	0	0	1	150.24	-0.89749	-0.897543	0.0715571	2	-0.0403455	39	12.9978	-6.42256e-05
2	1	0	0	1	150.64	-0.893491	-0.893544	0.0715229	2	-0.0403167	39	13.3978	-6.39088e-05
2	1	0	1	1	151.039	-0.889492	-0.889527	0.0706481	2	-0.040288	39	13.7976	-6.28434e-05
2	1	0	1	1	151.439	-0.885492	-0.885529	0.0689202	2	-0.0402598	39	14.1976	-6.10308e-05
2	1	0	1	1	151.839	-0.881493	-0.881515	0.0669392	2	-0.0402324	39	14.5976	-5.90079e-05
2	1	0	0	1	152.239	-0.877494	-0.877525	0.0647397	2	-0.0402059	39	14.9974	-5.68107e-05
2	1	0	0	1	152.639	-0.873494	-0.87351	0.0628091	2	-0.0401801	39	15.3974	-5.48644e-05
2	1	0	0	1	153.039	-0.869495	-0.869542	0.0609889	2	-0.0401551	39	15.7974	-5.30324e-05
2	1	0	1	1	153.439	-0.865496	-0.865538	0.0592223	2	-0.0401309	39	16.1972	-5.12591e-05
2	1	0	1	1	153.839	-0.861496	-0.861546	0.0573425	2	-0.0401073	39	16.5972	-4.94032e-05
2	1	0	1	1	154.239	-0.857497	-0.857524	0.0557685	2	-0.0400845	39	16.9972	-4.78229e-05
2	1	0	0	1	154.639	-0.853498	-0.853513	0.0542354	2	-0.0400623	39	17.397	-4.62907e-05
2	1	0	0	1	155.039	-0.849499	-0.849528	0.0525895	2	-0.0400407	39	17.797	-4.46763e-05
2	1	0	0	1	155.439	-0.845499	-0.845553	0.0509862	2	-0.0400198	39	18.197	-4.31116e-05
2	1	0	1	1	155.839	-0.8415	-0.841535	0.0496259	2	-0.0399994	39	18.5968	-4.1762e-05
2	1	0	1	1	156.239	-0.837501	-0.83753	0.0484	2	-0.0399796	39	18.9968	-4.05364e-05
2	1	0	1	1	156.638	-0.833501	-0.833564	0.0469188	2	-0.0399603	39	19.3967	-3.91098e-05
2	1	0	0	1	157.038	-0.829502	-0.829526	0.0457199	2	-0.0399415	39	19.7966	-3.79259e-05
2	1	0	0	1	157.438	-0.825503	-0.825536	0.0443164	2	-0.0399233	39	20.1966	-3.65847e-05
2	1	0	1	1	157.838	-0.821504	-0.821527	0.0429334	2	-0.0399057	39	20.5964	-3.52709e-05
2	1	0	1	1	158.238	-0.817504	-0.817539	0.0414466	2	-0.0398886	39	20.9964	-3.38842e-05
2	1	0	1	1	158.638	-0.813505	-0.813545	0.040244	2	-0.039872	39	21.3964	-3.27403e-05
2	1	0	1	1	159.038	-0.809506	-0.809533	0.0388574	2	-0.039856	39	21.7962	-3.14564e-05
2	1	0	0	1	159.438	-0.805506	-0.805574	0.0377836	2	-0.0398404	39	22.1962	-3.04375e-05
2	1	0	0	1	159.838	-0.801507	-0.801544	0.0364834	2	-0.0398254	39	22.5962	-2.9243e-05
2	1	0	1	1	160.238	-0.797507	-0.797548	0.0353513	2	-0.0398109	39	22.996	-2.81944e-05
2	1	0	1	1	160.638	-0.793508	-0.793548	0.0343777	2	-0.0397967	39	23.396	-2.72803e-05
2	1	0	1	1	161.038	-0.789509	-0.789556	0.0333328	2	-0.039783	39	23.796	-2.63181e-05
2	1	0	0	1	161.438	-0.78551	-0.785549	0.0323634	2	-0.0397698	39	24.1958	-2.5423e-05
2	1	0	0	1	161.838	-0.78151	-0.78155	0.0313402	2	-0.0397569	39	24.5958	-2.44939e-05
2	1	0	0	1	162.238	-0.777511	-0.777537	0.0303745	2	-0.0397444	39	24.9958	-2.36173e-05
2	1	0	1	1	162.637	-0.773512	-0.773545	0.0295354	2	-0.0397322	39	25.3956	-2.28469e-05
2	1	0	1	1	163.037	-0.769512	-0.769553	0.0287973	2	-0.0397204	39	25.7956	-2.21611e-05
2	1	0	1	1	163.437	-0.765513	-0.765564	0.0279016	2	-0.0397089	39	26.1956	-2.13605e-05
2	1	0	0	1	163.837	-0.761514	-0.761555	0.0271321	2	-0.0396978	39	26.5954	-2.06626e-05
2	1	0	0	1	164.237	-0.757514	-0.757574	0.0263707	2	-0.0396869	39	26.9954	-1.99778e-05
2	1	0	0	1	164.637	-0.753515	-0.753569	0.0257115	2	-0.0396763	39	27.3954	-1.93754e-05
2	1	0	1	1	165.037	-0.749516	-0.749557	0.0250716	2	-0.039666	39	27.7952	-1.87926e-05
2	1	0	1	1	165.437	-0.745516	-0.745569	0.0245036	2	-0.0396559	39	28.1952	-1.82692e-05
2	1	0	1	1	165.837	-0.741517	-0.741575	0.0239078	2	-0.0396461	39	28.5952	-1.77294e-05
2	1	0	0	1	166.237	-0.737518	-0.737575	0.0234395	2	-0.0396365	39	28.995	-1.72884e-05
2	1	0	0	1	166.637	-0.733518	-0.73359	0.0228751	2	-0.0396271	39	29.395	-1.6781e-05
2	1	0	0	1	167.037	-0.729519	-0.729573	0.0225707	2	-0.0396178	39	29.795	-1.6467e-05
2	1	0	1	1	167.437	-0.72552	-0.725588	0.0218926	2	-0.0396088	39	30.1948	-1.5885e-05
2	1	0	1	1	167.837	-0.721521	-0.721606	0.0214608	2	-0.0396	39	30.5948	-1.54863e-05
2	1	0	1	1	168.236	-0.717522	-0.717611	0.0212107	2	-0.0395913	39	30.9947	-1.5221e-05
2	1	0	0	1	168.636	-0.713522	-0.713577	0.0207497	2	-0.0395828	39	31.3946	-1.48065e-05
2	1	0	0	1	169.036	-0.709523	-0.70956	0.0202998	2	-0.0395744	39	31.7946	-1.44039e-05
2	1	0	1	1	169.436	-0.705523	-0.70557	0.0201311	2	-0.0395662	39	32.1945	-1.42039e-05
2	1	0	1	1	169.836	-0.701524	-0.70159	0.0197297	2	-0.0395581	39	32.5944	-1.38422e-05
2	1	0	1	1	170.236	-0.697525	-0.697577	0.0195066	2	-0.0395501	39	32.9944	-1.36073e-05
2	1	0	1	1	170.636	-0.693524	-0.693588	0.0190837	2	-0.0395423	39	33.3943	-1.32362e-05
2	1	0	0	1	171.036	-0.689526	-0.689584	0.0189552	2	-0.0395345	39	33.7942	-1.30712e-05
2	1	0	0	1	171.436	-0.685527	-0.685567	0.0187711	2	-0.0395269	39	34.1942	-1.28689e-05
2	1	0	1	1	171.836	-0.681527	-0.681595	0.0184576	2	-0.0395193	39	34.594	-1.25806e-05
2	1	0	1	1	172.236	-0.677528	-0.677589	0.0183605	2	-0.0395118	39	34.994	-1.24408e-05
2	1	0	1	1	172.636	-0.673529	-0.673575	0.0181413	2	-0.0395044	39	35.394	-1.22195e-05
2	1	0	0	1	173.036	-0.669529	-0.669582	0.0180412	2	-0.039497	39	35.7938	-1.20801e-05
2	1	0	0	1	173.436	-0.66553	-0.665571	0.017894	2	-0.0394898	39	36.1938	-1.19097e-05
2	1	0	0	1	173.836	-0.661531	-0.661595	0.0176229	2	-0.0394825	39	36.5938	-1.16592e-05
2	1	0	1	1	174.235	-0.657532	-0.657586	0.0175577	2	-0.0394754	39	36.9936	-1.15457e-05
2	1	0	1	1	174.635	-0.653532	-0.653583	0.0173806	2	-0.0394683	39	37.3936	-1.13596e-05
2	1	0	1	1	175.035	-0.649533	-0.64959	0.017197	2	-0.0394612	39	37.7936	-1.1171e-05
2	1	0	0	1	175.435	-0.645534	-0.645591	0.0172262	2	-0.0394542	39	38.1934	-1.11211e-05
2	1	0	0	1	175.835	-0.641534	-0.641587	0.017081	2	-0.0394472	39	38.5934	-1.0959e-05
2	1	0	0	1	176.235	-0.637535	-0.637592	0.0169849	2	-0.0394403	39	38.9934	-1.08295e-05
2	1	0	1	1	176.635	-0.633536	-0.633576	0.0169011	2	-0.0394334	39	39.3932	-1.07081e-05
2	1	0	1	1	177.035	-0.629536	-0.629616	0.0168277	2	-0.0394265	39	39.7932	-1.0595e-05
2	1	0	1	1	177.435	-0.625537	-0.625606	0.016763	2	-0.0394197	39	40.1932	-1.04871e-05
2	1	0	0	1	177.835	-0.621538	-0.621614	0.016614	2	-0.0394129	39	40.593	-1.03275e-05
2	1	0	0	1	178.235	-0.617539	-0.61762	0.0166288	2	-0.0394061	39	40.993	-1.02703e-05
2	1	0	0	1	178.635	-0.613539	-0.613618	0.016517	2	-0.0393994	39	41.393	-1.01351e-05
2	1	0	1	1	179.035	-0.60954	-0.609621	0.0164489	2	-0.0393927	39	41.7928	-1.00276e-05
2	1	0	1	1	179.435	-0.605541	-0.605601	0.0164672	2	-0.039386	39	42.1928	-9.97255e-06
2	1	0	1	1	179.834	-0.601542	-0.601618	0.0163552	2	-0.0393793	39	42.5927	-9.83958e-06
2	1	0	0	1	180.234	-0.597542	-0.597588	0.0163623	2	-0.0393726	39	42.9926	-9.7779e-06
2	1	0	0	1	180.634	-0.593543	-0.593604	0.0161545	2	-0.039366	39	43.3926	-9.58936e-06
2	1	0	1	1	181.034	-0.589543	-0.589616	0.0162366	2	-0.0393594	39	43.7925	-9.57337e-06
2	1	0	1	1	181.434	-0.585544	-0.585616	0.0160959	2	-0.0393529	39	44.1924	-9.42601e-06
2	1	0	1	1	181.834	-0.581545	-0.581603	0.0161331	2	-0.0393463	39	44.5924	-9.38309e-06
2	1	0	0	1	182.234	-0.577545	-0.577623	0.0159793	2	-0.0393398	39	44.9922	-9.23002e-06
2	1	0	0	1	182.634	-0.573546	-0.573598	0.0159516	2	-0.0393332	39	45.3922	-9.14982e-06
2	1	0	0	1	183.034	-0.569547	-0.569636	0.0158969	2	-0.0393268	39	45.7922	-9.05548e-06
2	1	0	1	1	183.434	-0.565547	-0.565615	0.0157433	2	-0.0393203	39	46.192	-8.90467e-06
2	1	0	1	1	183.834	-0.561548	-0.561624	0.0157501	2	-0.0393139	39	46.592	-8.84565e-06
2	1	0	1	1	184.234	-0.557549	-0.557614	0.015695	2	-0.0393075	39	46.992	-8.75178e-06
2	1	0	0	1	184.634	-0.55355	-0.553611	0.0156976	2	-0.0393011	39	47.3918	-8.69038e-06
2	1	0	0	1	185.034	-0.54955	-0.549612	0.015656	2	-0.0392947	39	47.7918	-8.60471e-06
2	1	0	0	1	185.434	-0.545551	-0.545613	0.0155751	2	-0.0392884	39	48.1918	-8.49799e-06
2	1	0	1	1	185.833	-0.541552	-0.541627	0.0153633	2	-0.0392821	39	48.5916	-8.32116e-06
2	1	0	1	1	186.233	-0.537552	-0.537624	0.0153373	2	-0.0392758	39	48.9916	-8.24571e-06
2	1	0	1	1	186.633	-0.533553	-0.533618	0.0152452	2	-0.0392696	39	49.3916	-8.13509e-06
2	1	0	0	1	187.033	-0.529554	-0.529635	0.0152101	2	-0.0392634	39	49.7914	-8.05579e-06
2	1	0	0	1	187.433	-0.525554	-0.525644	0.0151792	2	-0.0392573	39	50.1914	-7.97884e-06
2	1	0	0	1	187.833	-0.521555	-0.521628	0.015095	2	-0.0392511	39	50.5914	-7.874e-06
2	1	0	1	1	188.233	-0.517556	-0.517639	0.0150532	2	-0.0392449	39	50.9912	-7.79214e-06
2	1	0	1	1	188.633	-0.513556	-0.513622	0.014867	2	-0.0392388	39	51.3912	-7.63601e-06
2	1	0	1	1	189.033	-0.509557	-0.509604	0.0148944	2	-0.0392328	39	51.7912	-7.59025e-06
2	1	0	0	1	189.433	-0.505558	-0.505619	0.014813	2	-0.0392267	39	52.191	-7.48973e-06
2	1	0	0	1	189.833	-0.501558	-0.501613	0.0148008	2	-0.0392207	39	52.591	-7.42429e-06
2	1	0	0	1	190.233	-0.497559	-0.497628	0.0147455	2	-0.0392147	39	52.991	-7.33777e-06
2	1	0	1	1	190.633	-0.49356	-0.493618	0.0144886	2	-0.0392088	39	53.3908	-7.15181e-06
2	1	0	1	1	191.033	-0.489561	-0.489614	0.0145078	2	-0.0392029	39	53.7908	-7.10323e-06
2	1	0	1	1	191.432	-0.485562	-0.485624	0.0144734	2	-0.039197	39	54.1907	-7.02861e-06
2	1	0	0	1	191.832	-0.481562	-0.48162	0.0144487	2	-0.0391911	39	54.5906	-6.95878e-06
2	1	0	0	1	192.232	-0.477563	-0.477622	0.0143472	2	-0.0391853	39	54.9906	-6.85254e-06
2	1	0	1	1	192.632	-0.473563	-0.473609	0.014212	2	-0.0391794	39	55.3905	-6.73093e-06
2	1	0	1	1	193.032	-0.469564	-0.46961	0.0141738	2	-0.0391737	39	55.7904	-6.65616e-06
2	1	0	1	1	193.432	-0.465565	-0.465596	0.0140849	2	-0.0391679	39	56.1904	-6.55786e-06
2	1	0	1	1	193.832	-0.461564	-0.461604	0.0140529	2	-0.0391622	39	56.5903	-6.48688e-06
2	1	0	0	1	194.232	-0.457566	-0.457623	0.0140016	2	-0.0391565	39	56.9902	-6.40747e-06
2	1	0	0	1	194.632	-0.453567	-0.453643	0.0139331	2	-0.0391508	39	57.3902	-6.32066e-06
2	1	0	1	1	195.032	-0.449567	-0.449649	0.013832	2	-0.0391451	39	57.79	-6.21952e-06
2	1	0	1	1	195.432	-0.445568	-0.44564	0.0137316	2	-0.0391395	39	58.19	-6.11937e-06
2	1	0	1	1	195.832	-0.441569	-0.44162	0.0137523	2	-0.0391339	39	58.59	-6.07327e-06
2	1	0	0	1	196.232	-0.43757	-0.437646	0.0137822	2	-0.0391283	39	58.9898	-6.03172e-06
2	1	0	0	1	196.632	-0.43357	-0.433628	0.0136833	2	-0.0391228	39	59.3898	-5.93347e-06
2	1	0	0	1	197.032	-0.429571	-0.429625	0.0134946	2	-0.0391172	39	59.7898	-5.79761e-06
2	1	0	1	1	197.431	-0.425572	-0.42564	0.0134612	2	-0.0391117	39	60.1896	-5.72963e-06
2	1	0	1	1	197.831	-0.421572	-0.421617	0.0136139	2	-0.0391062	39	60.5896	-5.73986e-06
2	1	0	1	1	198.231	-0.417573	-0.417617	0.0134879	2	-0.0391007	39	60.9896	-5.63276e-06
2	1	0	0	1	198.631	-0.413574	-0.413644	0.0133534	2	-0.0390953	39	61.3894	-5.52355e-06
2	1	0	0	1	199.031	-0.409574	-0.409648	0.0134259	2	-0.0390898	39	61.7894	-5.4999e-06
2	1	0	0	1	199.431	-0.405575	-0.405632	0.0133031	2	-0.0390844	39	62.1894	-5.39616e-06
2	1	0	1	1	199.831	-0.401576	-0.401627	0.0132931	2	-0.039079	39	62.5892	-5.33888e-06
2	1	0	1	1	200.231	-0.397576	-0.39763	0.0132399	2	-0.0390735	39	62.9892	-5.26458e-06
2	1	0	1	1	200.631	-0.393577	-0.393632	0.0132935	2	-0.0390681	39	63.3892	-5.23274e-06
2	1	0	0	1	201.031	-0.389578	-0.389624	0.0132571	2	-0.0390627	39	63.789	-5.16529e-06
2	1	0	0	1	201.431	-0.385578	-0.385651	0.0131687	2	-0.0390574	39	64.189	-5.07851e-06
2	1	0	0	1	201.831	-0.381579	-0.381645	0.0132584	2	-0.039052	39	64.589	-5.06001e-06
2	1	0	1	1	202.231	-0.37758	-0.377661	0.0129828	2	-0.0390467	39	64.9888	-4.90311e-06
2	1	0	1	1	202.631	-0.373581	-0.373633	0.0130337	2	-0.0390413	39	65.3888	-4.86983e-06
2	1	0	1	1	203.031	-0.369581	-0.369648	0.0130056	2	-0.039036	39	65.7888	-4.80747e-06
2	1	0	0	1	203.43	-0.365582	-0.365645	0.0128705	2	-0.0390307	39	66.1886	-4.70605e-06
2	1	0	0	1	203.83	-0.361583	-0.36164	0.0129657	2	-0.0390255	39	66.5886	-4.68892e-06
2	1	0	1	1	204.23	-0.357583	-0.357648	0.0129374	2	-0.0390202	39	66.9885	-4.62702e-06
2	1	0	1	1	204.63	-0.353584	-0.353637	0.0128411	2	-0.0390149	39	67.3884	-4.54108e-06
2	1	0	1	1	205.03	-0.349585	-0.349641	0.0128572	2	-0.0390097	39	67.7884	-4.4954e-06
2	1	0	1	1	205.43	-0.345584	-0.345653	0.0127711	2	-0.0390045	39	68.1883	-4.41438e-06
2	1	0	0	1	205.83	-0.341586	-0.34163	0.0128276	2	-0.0389993	39	68.5882	-4.38229e-06
2	1	0	0	1	206.23	-0.337587	-0.337633	0.0126702	2	-0.0389941	39	68.9882	-4.27787e-06
2	1	0	1	1	206.63	-0.333587	-0.33366	0.0126887	2	-0.0389889	39	69.388	-4.23372e-06
2	1	0	1	1	207.03	-0.329588	-0.329649	0.0126704	2	-0.0389838	39	69.788	-4.17677e-06
2	1	0	1	1	207.43	-0.325589	-0.325649	0.0126632	2	-0.0389786	39	70.188	-4.12374e-06
2	1	0	0	1	207.83	-0.321589	-0.321654	0.01255	2	-0.0389735	39	70.5878	-4.03676e-06
2	1	0	0	1	208.23	-0.31759	-0.317663	0.0125211	2	-0.0389684	39	70.9878	-3.97748e-06
2	1	0	0	1	208.63	-0.313591	-0.313658	0.0125777	2	-0.0389632	39	71.3878	-3.94509e-06
2	1	0	1	1	209.029	-0.309592	-0.309662	0.012622	2	-0.0389581	39	71.7876	-3.90857e-06
2	1	0	1	1	209.429	-0.305592	-0.305666	0.0125931	2	-0.038953	39	72.1876	-3.84929e-06
2	1	0	1	1	209.829	-0.301593	-0.301648	0.0124727	2	-0.0389479	39	72.5876	-3.76237e-06
2	1	0	1	1	210.14	-0.301593	-0.301655	0.0120585	2	-0.0389441	39	72.898	-3.63752e-06
2	1	0	1	1	210.54	-0.305592	-0.305658	0.0116883	2	-0.0389394	39	73.298	-3.5726e-06
2	1	0	1	1	210.94	-0.309592	-0.309658	0.0112048	2	-0.0389349	39	73.698	-3.46966e-06
2	1	0	0	1	211.34	-0.313591	-0.313644	0.0108649	2	-0.0389306	39	74.0978	-3.4077e-06
2	1	0	0	1	211.74	-0.31759	-0.317657	0.0105312	2	-0.0389264	39	74.4978	-3.34533e-06
2	1	0	0	1	212.14	-0.321589	-0.321656	0.0101683	2	-0.0389224	39	74.8978	-3.27071e-06
2	1	0	1	1	212.539	-0.325589	-0.325655	0.00995863	2	-0.0389184	39	75.2976	-3.24308e-06
2	1	0	1	1	212.939	-0.329588	-0.32966	0.0097197	2	-0.0389146	39	75.6976	-3.2042e-06
2	1	0	1	1	213.339	-0.333587	-0.333627	0.00942142	2	-0.0389109	39	76.0976	-3.14324e-06
2	1	0	0	1	213.739	-0.337587	-0.337635	0.00911653	2	-0.0389072	39	76.4974	-3.07806e-06
2	1	0	0	1	214.139	-0.341586	-0.341642	0.00898943	2	-0.0389037	39	76.8974	-3.07117e-06
2	1	0	1	1	214.539	-0.345585	-0.345657	0.00882857	2	-0.0389002	39	77.2973	-3.05166e-06
2	1	0	1	1	214.939	-0.349585	-0.349641	0.00858223	2	-0.0388968	39	77.6972	-3.0007e-06
2	1	0	1	1	215.339	-0.353584	-0.353652	0.00841534	2	-0.0388935	39	78.0972	-2.97611e-06
2	1	0	1	1	215.739	-0.357584	-0.357634	0.00817086	2	-0.0388903	39	78.4971	-2.92218e-06
2	1	0	0	1	216.139	-0.361583	-0.361643	0.00799153	2	-0.0388872	39	78.897	-2.89008e-06
2	1	0	0	1	216.539	-0.365582	-0.365635	0.00781268	2	-0.0388841	39	79.297	-2.85659e-06
2	1	0	1	1	216.939	-0.369581	-0.36964	0.00773501	2	-0.038881	39	79.6968	-2.85917e-06
2	1	0	1	1	217.339	-0.373581	-0.373645	0.0075568	2	-0.0388781	39	80.0968	-2.82356e-06
2	1	0	1	1	217.739	-0.37758	-0.377633	0.00750978	2	-0.0388752	39	80.4968	-2.83594e-06
2	1	0	0	1	218.138	-0.381579	-0.381628	0.00732406	2	-0.0388723	39	80.8966	-2.79507e-06
2	1	0	0	1	218.538	-0.385578	-0.385648	0.00714857	2	-0.0388695	39	81.2966	-2.75683e-06
2	1	0	0	1	218.938	-0.389578	-0.389628	0.00702291	2	-0.0388668	39	81.6966	-2.73632e-06
2	1	0	1	1	219.338	-0.393577	-0.393638	0.00693379	2	-0.0388641	39	82.0964	-2.7294e-06
2	1	0	1	1	219.738	-0.397576	-0.397633	0.00676607	2	-0.0388614	39	82.4964	-2.69041e-06
2	1	0	1	1	220.138	-0.401576	-0.401639	0.00662393	2	-0.0388588	39	82.8964	-2.66043e-06
2	1	0	0	1	220.538	-0.405575	-0.405658	0.00660783	2	-0.0388562	39	83.2962	-2.68052e-06
2	1	0	0	1	220.938	-0.409574	-0.409652	0.00652641	2	-0.0388537	39	83.6962	-2.67356e-06
2	1	0	0	1	221.338	-0.413574	-0.413661	0.00644779	2	-0.0388512	39	84.0962	-2.6672e-06
2	1	0	1	1	221.738	-0.417573	-0.417647	0.00637324	2	-0.0388487	39	84.496	-2.66176e-06
2	1	0	1	1	222.138	-0.421572	-0.42164	0.0062732	2	-0.0388463	39	84.896	-2.64503e-06
2	1	0	1	1	222.538	-0.425572	-0.425647	0.00607252	2	-0.0388439	39	85.296	-2.58475e-06
2	1	0	0	1	222.938	-0.429571	-0.429643	0.00600625	2	-0.0388416	39	85.6958	-2.58054e-06
2	1	0	0	1	223.338	-0.43357	-0.433651	0.00594596	2	-0.0388393	39	86.0958	-2.57847e-06
2	1	0	0	1	223.738	-0.43757	-0.437631	0.005858	2	-0.038837	39	86.4958	-2.56364e-06
2	1	0	1	1	224.137	-0.441569	-0.441613	0.00572822	2	-0.0388348	39	86.8956	-2.52966e-06
2	1	0	1	1	224.537	-0.445568	-0.445628	0.00572741	2	-0.0388326	39	87.2956	-2.55229e-06
2	1	0	1	1	224.937	-0.449567	-0.449647	0.00556196	2	-0.0388304	39	87.6956	-2.50092e-06
2	1	0	0	1	225.337	-0.453567	-0.453639	0.00552103	2	-0.0388283	39	88.0954	-2.50455e-06
2	1	0	0	1	225.737	-0.457566	-0.457628	0.005443	2	-0.0388262	39	88.4954	-2.49087e-06
2	1	0	1	1	226.137	-0.461565	-0.461628	0.00548375	2	-0.038824	39	88.8953	-2.53146e-06
2	1	0	1	1	226.537	-0.465565	-0.465618	0.00545946	2	-0.038822	39	89.2952	-2.54202e-06
2	1	0	1	1	226.937	-0.469564	-0.469644	0.005355	2	-0.0388199	39	89.6952	-2.51494e-06
2	1	0	1	1	227.337	-0.473563	-0.473645	0.00525205	2	-0.0388179	39	90.0951	-2.48761e-06
2	1	0	0	1	227.737	-0.477563	-0.477636	0.0051878	2	-0.0388159	39	90.495	-2.47788e-06
2	1	0	0	1	228.137	-0.481562	-0.481633	0.00511641	2	-0.0388139	39	90.895	-2.46423e-06
2	1	0	1	1	228.537	-0.485561	-0.485635	0.00508682	2	-0.038812	39	91.2948	-2.47034e-06
2	1	0	1	1	228.937	-0.489561	-0.489601	0.00501996	2	-0.0388101	39	91.6948	-2.45778e-06
2	1	0	1	1	229.337	-0.49356	-0.493614	0.00487071	2	-0.0388082	39	92.0948	-2.40425e-06
2	1	0	0	1	229.736	-0.497559	-0.49761	0.00485826	2	-0.0388063	39	92.4946	-2.41752e-06
2	1	0	0	1	230.136	-0.501558	-0.501613	0.00477768	2	-0.0388045	39	92.8946	-2.39655e-06
2	1	0	0	1	230.536	-0.505558	-0.50559	0.00477975	2	-0.0388027	39	93.2946	-2.41659e-06
2	1	0	1	1	230.936	-0.509557	-0.509602	0.00460503	2	-0.0388009	39	93.6944	-2.34673e-06
2	1	0	1	1	231.279	-0.513006	-0.513084	0.00549608	2	-0.0387994	39	94.0374	-2.81995e-06