File: Fig 2/Fig 2_np-Fe2O3_25mvs.mpt
mode	ox/red	error	control changes	counter inc.	time/s	control/V	Ewe/V	<I>/mA	cycle number	(Q-Qo)/C	I Range	step time/s	P/W
2	1	1	1	0	0.000000000000000E+000	-0.300043	-0.300044	0.575644	1	0.0000000E+000	39	0.000000000000000E+000	-0.000172719
2	1	0	1	0	0.382	-0.309591	-0.309561	0.0103185	1	1.15329e-05	39	0.36	-3.1942e-06
2	1	0	1	0	0.782	-0.31959	-0.319572	0.00713265	1	1.46282e-05	39	0.76	-2.27939e-06
2	1	0	1	0	1.1819	-0.329587	-0.329557	0.00574748	1	1.69655e-05	39	1.1599	-1.89412e-06
2	1	0	0	0	1.5818	-0.339586	-0.339548	0.00505585	1	1.89456e-05	39	1.5598	-1.7167e-06
2	1	0	0	0	1.9818	-0.349585	-0.349536	0.00481138	1	2.06995e-05	39	1.9598	-1.68175e-06
2	1	0	0	0	2.3818	-0.359583	-0.359549	0.004303	1	2.22939e-05	39	2.3598	-1.54714e-06
2	1	0	1	0	2.7816	-0.369581	-0.369555	0.0041456	1	2.3776e-05	39	2.7596	-1.53203e-06
2	1	0	1	0	3.1816	-0.37958	-0.379552	0.00394242	1	2.51671e-05	39	3.1596	-1.49636e-06
2	1	0	1	0	3.5816	-0.389578	-0.389543	0.00365357	1	2.64949e-05	39	3.5596	-1.42322e-06
2	1	0	0	0	3.9814	-0.399576	-0.399543	0.00361157	1	2.77591e-05	39	3.9594	-1.44298e-06
2	1	0	0	0	4.3814	-0.409575	-0.409557	0.00347957	1	2.89409e-05	39	4.3594	-1.42508e-06
2	1	0	0	0	4.7814	-0.419573	-0.419571	0.00334199	1	3.01109e-05	39	4.7594	-1.4022e-06
2	1	0	1	0	5.1812	-0.429571	-0.429555	0.00334639	1	3.12232e-05	39	5.1592	-1.43746e-06
2	1	0	1	0	5.5812	-0.43957	-0.439559	0.00317115	1	3.22989e-05	39	5.5592	-1.39391e-06
2	1	0	1	0	5.9812	-0.449568	-0.449551	0.00296521	1	3.33388e-05	39	5.9592	-1.33302e-06
2	1	0	0	0	6.381	-0.459566	-0.459548	0.00297618	1	3.43443e-05	39	6.359	-1.3677e-06
2	1	0	0	0	6.781	-0.469565	-0.46954	0.00290092	1	3.53087e-05	39	6.759	-1.3621e-06
2	1	0	0	0	7.181	-0.479563	-0.479543	0.00286092	1	3.62564e-05	39	7.159	-1.37193e-06
2	1	0	1	0	7.5808	-0.489561	-0.489546	0.00269163	1	3.71492e-05	39	7.5588	-1.31768e-06
2	1	0	1	0	7.9808	-0.49956	-0.499541	0.00283638	1	3.80294e-05	39	7.9588	-1.41689e-06
2	1	0	1	0	8.3808	-0.509558	-0.509529	0.00265124	1	3.88742e-05	39	8.3588	-1.35089e-06
2	1	0	0	0	8.7806	-0.519557	-0.519542	0.00279862	1	3.96862e-05	39	8.7586	-1.454e-06
2	1	0	0	0	9.1806	-0.529555	-0.529521	0.00252384	1	4.04818e-05	39	9.1586	-1.33642e-06
2	1	0	0	0	9.5806	-0.539553	-0.539523	0.00243437	1	4.12706e-05	39	9.5586	-1.3134e-06
2	1	0	1	0	9.9804	-0.549552	-0.549529	0.00235533	1	4.19924e-05	39	9.9584	-1.29432e-06
2	1	0	1	0	10.3804	-0.55955	-0.559523	0.00225804	1	4.26929e-05	39	10.3584	-1.26342e-06
2	1	0	1	0	10.7804	-0.569548	-0.569517	0.00217777	1	4.33555e-05	39	10.7584	-1.24028e-06
2	1	0	0	0	11.1802	-0.579547	-0.579522	0.00220328	1	4.39959e-05	39	11.1582	-1.27685e-06
2	1	0	0	0	11.5802	-0.589545	-0.589493	0.00199758	1	4.45961e-05	39	11.5582	-1.17756e-06
2	1	0	0	0	11.9802	-0.599543	-0.599494	0.00217087	1	4.51748e-05	39	11.9582	-1.30142e-06
2	1	0	1	0	12.38	-0.609542	-0.609519	0.00197609	1	4.57225e-05	39	12.358	-1.20447e-06
2	1	0	1	0	12.78	-0.61954	-0.619529	0.00195867	1	4.62504e-05	39	12.758	-1.21345e-06
2	1	0	1	0	13.18	-0.629538	-0.62953	0.00200372	1	4.67406e-05	39	13.158	-1.2614e-06
2	1	0	0	0	13.5798	-0.639537	-0.639515	0.00183963	1	4.72103e-05	39	13.5578	-1.17647e-06
2	1	0	0	0	13.9798	-0.649535	-0.649476	0.00174893	1	4.76398e-05	39	13.9578	-1.13589e-06
2	1	0	0	0	14.3798	-0.659533	-0.659515	0.00182179	1	4.80515e-05	39	14.3578	-1.2015e-06
2	1	0	1	0	14.7796	-0.669532	-0.669504	0.00159546	1	4.84699e-05	39	14.7576	-1.06817e-06
2	1	0	1	0	15.1796	-0.67953	-0.679496	0.00158333	1	4.88245e-05	39	15.1576	-1.07587e-06
2	1	0	1	0	15.5796	-0.689529	-0.689483	0.00159124	1	4.91568e-05	39	15.5576	-1.09713e-06
2	1	0	0	0	15.9794	-0.699527	-0.699495	0.00138793	1	4.94667e-05	39	15.9574	-9.70847e-07
2	1	0	0	0	16.3794	-0.709525	-0.709483	0.00138679	1	4.97295e-05	39	16.3574	-9.83907e-07
2	1	0	0	0	16.7794	-0.719524	-0.71948	0.00134862	1	4.99654e-05	39	16.7574	-9.70308e-07
2	1	0	1	0	17.1792	-0.729522	-0.729502	0.00129228	1	5.01746e-05	39	17.1572	-9.42722e-07
2	1	0	1	0	17.5792	-0.73952	-0.739498	0.00120805	1	5.03449e-05	39	17.5572	-8.93354e-07
2	1	0	1	0	17.9792	-0.749519	-0.749476	0.00109975	1	5.04669e-05	39	17.9572	-8.24238e-07
2	1	0	0	0	18.379	-0.759517	-0.759469	0.000941004	1	5.05485e-05	39	18.357	-7.14663e-07
2	1	0	0	0	18.779	-0.769515	-0.769466	0.00074568	1	5.05644e-05	39	0.000000000000000E+000	-5.73776e-07
2	1	0	0	0	19.179	-0.779514	-0.779469	0.000664101	1	5.05261e-05	39	0.16	-5.17647e-07
2	1	0	1	0	19.5788	-0.789512	-0.789465	0.000415124	1	5.04322e-05	39	0.5598	-3.27726e-07
2	0	0	1	0	19.9788	-0.79951	-0.799472	0.000334141	1	5.02663e-05	39	0.9598	-2.67136e-07
2	0	0	1	0	20.3788	-0.809509	-0.80949	2.38325e-05	1	5.0015e-05	39	1.3598	-1.92922e-08
2	1	0	0	0	20.7786	-0.819507	-0.819486	-6.0824e-07	1	4.96902e-05	39	1.7596	4.98444e-10
2	1	0	0	0	21.1786	-0.829506	-0.829456	-0.00016194	1	4.92674e-05	39	2.1596	1.34322e-07
2	1	0	0	0	21.5786	-0.839504	-0.839481	-0.000519956	1	4.8745e-05	39	2.5596	4.36493e-07
2	1	0	1	0	21.9784	-0.849502	-0.849482	-0.000724155	1	4.81217e-05	39	2.9594	6.15157e-07
2	1	0	1	0	22.3784	-0.8595	-0.859476	-0.000951887	1	4.74215e-05	39	3.3594	8.18124e-07
2	1	0	1	0	22.7784	-0.869499	-0.869466	-0.00131297	1	4.66006e-05	39	3.7594	1.14159e-06
2	0	0	0	0	23.1782	-0.879497	-0.879467	-0.00158138	1	4.56682e-05	39	4.1592	1.39077e-06
2	0	0	0	0	23.5782	-0.889496	-0.889459	-0.00187842	1	4.46265e-05	39	4.5592	1.67078e-06
2	0	0	0	0	23.9782	-0.899494	-0.899464	-0.00221555	1	4.34579e-05	39	4.9592	1.99281e-06
2	0	0	1	0	24.378	-0.909492	-0.909457	-0.00237576	1	4.21563e-05	39	5.359	2.16065e-06
2	0	0	1	0	24.778	-0.919491	-0.91946	-0.00296664	1	4.06903e-05	39	5.759	2.7277e-06
2	0	0	1	0	25.178	-0.929489	-0.929464	-0.00346231	1	3.90213e-05	39	6.159	3.21809e-06
2	0	0	0	0	25.5778	-0.939487	-0.939469	-0.00405007	1	3.71212e-05	39	6.5588	3.80491e-06
2	0	0	0	0	25.9778	-0.949486	-0.949432	-0.00494497	1	3.49178e-05	39	6.9588	4.69491e-06
2	0	0	0	0	26.3778	-0.959484	-0.959454	-0.00647052	1	3.22347e-05	39	7.3588	6.20817e-06
2	0	0	1	0	26.7776	-0.969482	-0.969429	-0.00870202	1	2.8831e-05	39	7.7586	8.43599e-06
2	0	0	1	0	27.1776	-0.979481	-0.979429	-0.0124075	1	2.42251e-05	39	8.1586	1.21523e-05
2	0	0	1	0	27.5776	-0.989479	-0.989444	-0.018126	1	1.77682e-05	39	8.5586	1.79346e-05
2	0	0	0	0	27.9774	-0.999477	-0.999431	-0.0259425	1	8.61256e-06	39	8.9584	2.59277e-05
2	0	0	0	0	28.3774	-1.00948	-1.00943	-0.0363497	1	-4.23157e-06	39	9.3584	3.66923e-05
2	0	0	0	0	28.7774	-1.01947	-1.01943	-0.0488002	1	-2.16962e-05	39	9.7584	4.97485e-05
2	0	0	1	0	29.1772	-1.02947	-1.02943	-0.0625958	1	-4.44434e-05	39	10.1582	6.4438e-05
2	0	0	1	0	29.5772	-1.03947	-1.03945	-0.0758797	1	-7.26601e-05	39	10.5582	7.8873e-05
2	0	0	1	0	29.9772	-1.04947	-1.04944	-0.0872124	1	-0.000105825	39	10.9582	9.1524e-05
2	0	0	0	0	30.377	-1.05947	-1.05942	-0.0962739	1	-0.000143037	39	11.358	0.000101995
2	0	0	0	0	30.777	-1.06947	-1.0694	-0.102935	1	-0.00018341	39	11.758	0.000110079
2	0	0	0	0	31.177	-1.07946	-1.07942	-0.107646	1	-0.000226038	39	12.158	0.000116195
2	0	0	1	0	31.5768	-1.08946	-1.08942	-0.110094	1	-0.000270033	39	12.5578	0.000119938
2	0	0	1	0	31.9768	-1.09946	-1.0994	-0.111278	1	-0.000314702	39	12.9578	0.000122339
2	0	0	1	0	32.3768	-1.10946	-1.10941	-0.125134	1	-0.000361509	39	13.3578	0.000138825
2	0	0	0	0	32.7766	-1.11946	-1.1194	-0.191974	1	-0.000422434	39	13.7576	0.000214895
2	0	0	0	0	33.1766	-1.12946	-1.1294	-0.334469	1	-0.000527578	39	14.1576	0.000377751
2	0	0	0	0	33.5766	-1.13945	-1.13942	-0.459515	1	-0.000688376	39	14.5576	0.00052358
2	0	0	1	0	33.9764	-1.14945	-1.14941	-0.533421	1	-0.000889662	39	14.9574	0.000613118
2	0	0	1	0	34.3764	-1.15945	-1.15937	-0.532334	1	-0.00110583	39	15.3574	0.00061717
2	0	0	1	0	34.7764	-1.16945	-1.16937	-0.488906	1	-0.0013115	39	15.7574	0.00057171
2	0	0	0	0	35.1762	-1.17945	-1.1794	-0.44685	1	-0.00149897	39	16.1572	0.000527013
2	0	0	0	0	35.5762	-1.18945	-1.18939	-0.417762	1	-0.00167202	39	16.5572	0.000496883
2	0	0	0	0	35.9762	-1.19944	-1.1994	-0.399088	1	-0.00183536	39	16.9572	0.000478667
2	0	0	1	0	36.376	-1.20944	-1.20933	-0.39105	1	-0.00199383	39	17.357	0.00047291
2	0	0	1	0	36.776	-1.21944	-1.21938	-0.394232	1	-0.00215115	39	17.757	0.000480718
2	0	0	1	0	37.176	-1.22944	-1.22937	-0.407435	1	-0.00231143	39	18.157	0.000500888
2	0	0	0	0	37.5758	-1.23944	-1.23936	-0.429963	1	-0.00247888	39	18.5568	0.000532878
2	0	0	0	0	37.9758	-1.24944	-1.24939	-0.466022	1	-0.00265869	39	18.9568	0.000582242
2	0	0	0	0	38.3758	-1.25943	-1.25937	-0.525602	1	-0.00285662	39	19.3568	0.000661929
2	0	0	1	0	38.7757	-1.26943	-1.26937	-0.607474	1	-0.00308288	39	19.7567	0.000771107
2	0	0	1	0	39.1756	-1.27943	-1.27936	-0.740711	1	-0.003351	39	20.1566	0.000947638
2	0	0	1	0	39.5756	-1.28943	-1.28937	-0.954141	1	-0.00368696	39	20.5566	0.00123024
2	0	0	1	0	39.9755	-1.29943	-1.29934	-1.28465	1	-0.00412762	39	20.9565	0.00166919
2	0	0	0	0	40.3754	-1.30943	-1.30935	-1.90766	1	-0.00475827	39	21.3564	0.0024978
2	0	0	0	0	40.7754	-1.31942	-1.31936	-2.791	1	-0.00569279	39	21.7564	0.00368234
2	0	0	1	0	41.1753	-1.32942	-1.32934	-3.83864	1	-0.0070152	39	22.1563	0.00510287
2	0	0	1	0	41.5752	-1.33942	-1.33936	-4.9169	1	-0.00876811	39	22.5562	0.00658551
2	0	0	1	0	41.9752	-1.34942	-1.34937	-5.93652	1	-0.01094	39	22.9562	0.00801055
2	0	0	1	1	42.3396	-1.34142	-1.34136	-5.19184	2	-0.0129871	39	23.3206	0.00696414
2	0	0	1	1	42.7396	-1.33142	-1.33137	-4.30296	2	-0.0148769	39	23.7206	0.00572882
2	0	0	0	1	43.1394	-1.32142	-1.32136	-3.56902	2	-0.0164425	39	24.1204	0.00471596
2	0	0	0	1	43.5394	-1.31143	-1.31135	-2.88714	2	-0.0177279	39	24.5204	0.00378607
2	0	0	0	1	43.9394	-1.30143	-1.30136	-2.34715	2	-0.0187688	39	24.9204	0.00305449
2	0	0	1	1	44.3392	-1.29143	-1.29137	-1.89107	2	-0.0196109	39	25.3202	0.00244207
2	0	0	1	1	44.7392	-1.28143	-1.28137	-1.5332	2	-0.0202919	39	25.7202	0.0019646
2	0	0	1	1	45.1392	-1.27143	-1.27136	-1.25861	2	-0.0208465	39	26.1202	0.00160015
2	0	0	0	1	45.539	-1.26143	-1.26136	-1.04167	2	-0.0213032	39	26.52	0.00131392
2	0	0	0	1	45.939	-1.25144	-1.25136	-0.868827	2	-0.0216828	39	26.92	0.00108722
2	0	0	0	1	46.339	-1.24144	-1.24137	-0.736493	2	-0.0220018	39	27.32	0.000914262
2	0	0	1	1	46.7388	-1.23144	-1.23139	-0.630829	2	-0.0222734	39	27.7198	0.000776797
2	0	0	1	1	47.1388	-1.22144	-1.22136	-0.547953	2	-0.0225078	39	28.1198	0.000669249
2	0	0	1	1	47.5388	-1.21144	-1.21136	-0.482546	2	-0.0227125	39	28.5198	0.000584537
2	0	0	0	1	47.9386	-1.20144	-1.20136	-0.428287	2	-0.0228933	39	28.9196	0.000514527
2	0	0	0	1	48.3386	-1.19145	-1.19138	-0.381014	2	-0.0230543	39	29.3196	0.000453934
2	0	0	0	1	48.7386	-1.18145	-1.18138	-0.340231	2	-0.0231976	39	29.7196	0.000401942
2	0	0	1	1	49.1384	-1.17145	-1.17136	-0.301548	2	-0.0233248	39	30.1194	0.000353221
2	0	0	1	1	49.5384	-1.16145	-1.16135	-0.263529	2	-0.023437	39	30.5194	0.00030605
2	0	0	1	1	49.9384	-1.15145	-1.15137	-0.226621	2	-0.0235341	39	30.9194	0.000260924
2	0	0	0	1	50.3382	-1.14145	-1.14139	-0.191364	2	-0.0236167	39	31.3192	0.000218421
2	0	0	0	1	50.7382	-1.13146	-1.13138	-0.159102	2	-0.0236857	39	31.7192	0.000180005
2	0	0	0	1	51.1382	-1.12146	-1.12139	-0.131019	2	-0.0237427	39	32.1192	0.000146923
2	0	0	1	1	51.538	-1.11146	-1.11138	-0.107523	2	-0.0237894	39	32.519	0.000119499
2	0	0	1	1	51.938	-1.10146	-1.10137	-0.0877154	2	-0.0238272	39	32.919	9.66073e-05
2	0	0	1	1	52.338	-1.09146	-1.09139	-0.0703478	2	-0.0238578	39	33.319	7.67767e-05
2	0	0	0	1	52.7378	-1.08146	-1.0814	-0.0564424	2	-0.0238821	39	33.7188	6.10368e-05
2	0	0	0	1	53.1378	-1.07147	-1.07139	-0.044516	2	-0.0239012	39	34.1188	4.76939e-05
2	0	0	0	1	53.5378	-1.06147	-1.06141	-0.0337576	2	-0.0239157	39	34.5188	3.58305e-05
2	0	0	1	1	53.9376	-1.05147	-1.05139	-0.0231999	2	-0.023926	39	34.9186	2.43922e-05
2	0	0	1	1	54.3376	-1.04147	-1.0414	-0.0119261	2	-0.0239319	39	35.3186	1.24199e-05
2	1	0	1	1	54.7376	-1.03147	-1.0314	0.00350524	2	-0.0239325	39	0.12	-3.61529e-06
2	1	0	0	1	55.1374	-1.02147	-1.02141	0.0222298	2	-0.023926	39	0.5198	-2.27059e-05
2	1	0	0	1	55.5374	-1.01148	-1.01142	0.0327353	2	-0.0239134	39	0.9198	-3.3109e-05
2	1	0	0	1	55.9374	-1.00148	-1.00143	0.0325191	2	-0.0238991	39	1.3198	-3.25656e-05
2	1	0	1	1	56.3372	-0.991479	-0.991418	0.0325956	2	-0.0238852	39	1.7196	-3.23158e-05
2	1	0	1	1	56.7372	-0.98148	-0.981387	0.0375205	2	-0.0238703	39	2.1196	-3.68221e-05
2	1	0	1	1	57.1372	-0.971482	-0.97141	0.0460907	2	-0.0238528	39	2.5196	-4.4773e-05
2	1	0	0	1	57.537	-0.961484	-0.961416	0.0587698	2	-0.0238312	39	2.9194	-5.65022e-05
2	1	0	0	1	57.937	-0.951485	-0.951439	0.0758195	2	-0.0238036	39	3.3194	-7.21376e-05
2	1	0	0	1	58.337	-0.941487	-0.941457	0.096567	2	-0.0237684	39	3.7194	-9.09137e-05
2	1	0	1	1	58.7368	-0.931489	-0.931437	0.12029	2	-0.0237243	39	4.1192	-0.000112042
2	1	0	1	1	59.1368	-0.92149	-0.921455	0.144991	2	-0.0236704	39	4.5192	-0.000133602
2	1	0	1	1	59.5368	-0.911492	-0.911442	0.169221	2	-0.0236067	39	4.9192	-0.000154235
2	1	0	0	1	59.9366	-0.901494	-0.901443	0.190988	2	-0.0235338	39	5.319	-0.000172165
2	1	0	0	1	60.3366	-0.891495	-0.891448	0.204116	2	-0.0234537	39	5.719	-0.000181959
2	1	0	0	1	60.7366	-0.881497	-0.881444	0.202706	2	-0.023371	39	6.119	-0.000178674
2	1	0	1	1	61.1364	-0.871499	-0.871433	0.186057	2	-0.0232923	39	6.5188	-0.000162136
2	1	0	1	1	61.5364	-0.8615	-0.86147	0.1657	2	-0.0232214	39	6.9188	-0.000142746
2	1	0	1	1	61.9364	-0.851502	-0.851453	0.148649	2	-0.0231579	39	7.3188	-0.000126568
2	1	0	0	1	62.3362	-0.841503	-0.84146	0.134144	2	-0.0231008	39	7.7186	-0.000112876
2	1	0	0	1	62.7362	-0.831505	-0.831458	0.121863	2	-0.0230492	39	8.1186	-0.000101324
2	1	0	0	1	63.1362	-0.821507	-0.821467	0.110727	2	-0.0230022	39	8.5186	-9.09583e-05
2	1	0	1	1	63.536	-0.811508	-0.811473	0.101073	2	-0.0229593	39	8.9184	-8.20181e-05
2	1	0	1	1	63.936	-0.80151	-0.801439	0.0926906	2	-0.0229201	39	9.3184	-7.42859e-05
2	1	0	1	1	64.336	-0.791512	-0.791462	0.0854576	2	-0.022884	39	9.7184	-6.76364e-05
2	1	0	0	1	64.7358	-0.781513	-0.781451	0.0790517	2	-0.0228507	39	10.1182	-6.1775e-05
2	1	0	0	1	65.1358	-0.771515	-0.77148	0.0733374	2	-0.0228198	39	10.5182	-5.65783e-05
2	1	0	0	1	65.5358	-0.761517	-0.76145	0.0683619	2	-0.022791	39	10.9182	-5.20541e-05
2	1	0	1	1	65.9356	-0.751518	-0.751447	0.0641448	2	-0.0227642	39	11.318	-4.82014e-05
2	1	0	1	1	66.3356	-0.74152	-0.741478	0.0600298	2	-0.022739	39	11.718	-4.45108e-05
2	1	0	1	1	66.7356	-0.731522	-0.731481	0.0568514	2	-0.0227153	39	12.118	-4.15857e-05
2	1	0	0	1	67.1354	-0.721523	-0.721464	0.0540054	2	-0.0226928	39	12.5178	-3.89629e-05
2	1	0	0	1	67.5354	-0.711525	-0.711466	0.0514768	2	-0.0226714	39	12.9178	-3.6624e-05
2	1	0	0	1	67.9354	-0.701527	-0.701466	0.0496234	2	-0.0226509	39	13.3178	-3.48091e-05
2	1	0	1	1	68.3352	-0.691528	-0.691485	0.0478512	2	-0.0226311	39	13.7176	-3.30883e-05
2	1	0	1	1	68.7352	-0.68153	-0.681499	0.0463573	2	-0.0226119	39	14.1176	-3.15924e-05
2	1	0	1	1	69.1352	-0.671532	-0.671482	0.0455512	2	-0.0225932	39	14.5176	-3.05868e-05
2	1	0	0	1	69.535	-0.661533	-0.661484	0.0446949	2	-0.0225749	39	14.9174	-2.95649e-05
2	1	0	0	1	69.935	-0.651535	-0.651492	0.044163	2	-0.0225568	39	15.3174	-2.87718e-05
2	1	0	0	1	70.335	-0.641536	-0.641489	0.0436599	2	-0.022539	39	15.7174	-2.80073e-05
2	1	0	1	1	70.7348	-0.631538	-0.631499	0.0434704	2	-0.0225213	39	16.1172	-2.74515e-05
2	1	0	1	1	71.1348	-0.62154	-0.621509	0.0430785	2	-0.0225037	39	16.5172	-2.67737e-05
2	1	0	1	1	71.5348	-0.611541	-0.611501	0.0428923	2	-0.0224862	39	16.9172	-2.62287e-05
2	1	0	0	1	71.9346	-0.601543	-0.601517	0.0427476	2	-0.0224687	39	17.317	-2.57134e-05
2	1	0	0	1	72.3346	-0.591545	-0.591519	0.0426665	2	-0.0224513	39	17.717	-2.5238e-05
2	1	0	0	1	72.7346	-0.581546	-0.581516	0.0423974	2	-0.022434	39	18.117	-2.46547e-05
2	1	0	1	1	73.1344	-0.571548	-0.571483	0.0420635	2	-0.0224169	39	18.5168	-2.40386e-05
2	1	0	1	1	73.5344	-0.56155	-0.561521	0.0413701	2	-0.0223999	39	18.9168	-2.32302e-05
2	1	0	1	1	73.9344	-0.551551	-0.55151	0.0409146	2	-0.0223832	39	19.3168	-2.25648e-05
2	1	0	0	1	74.3342	-0.541553	-0.541519	0.0401342	2	-0.0223667	39	19.7166	-2.17334e-05
2	1	0	0	1	74.7342	-0.531555	-0.531513	0.03934	2	-0.0223506	39	20.1166	-2.09097e-05
2	1	0	0	1	75.1342	-0.521556	-0.521551	0.0384729	2	-0.0223347	39	20.5166	-2.00655e-05
2	1	0	1	1	75.5341	-0.511557	-0.51154	0.0378446	2	-0.0223192	39	20.9165	-1.9359e-05
2	1	0	1	1	75.934	-0.50156	-0.501548	0.0368863	2	-0.022304	39	21.3164	-1.85003e-05
2	1	0	1	1	76.334	-0.491561	-0.491511	0.0362083	2	-0.0222891	39	21.7164	-1.77968e-05
2	1	0	1	1	76.7339	-0.481564	-0.481523	0.0355376	2	-0.0222745	39	22.1163	-1.71122e-05
2	1	0	0	1	77.1338	-0.471564	-0.471537	0.0346798	2	-0.0222603	39	22.5162	-1.63528e-05
2	1	0	0	1	77.5338	-0.461566	-0.46154	0.0340753	2	-0.0222462	39	22.9162	-1.57271e-05
2	1	0	1	1	77.9337	-0.45157	-0.451524	0.0335686	2	-0.0222325	39	23.3161	-1.5157e-05
2	1	0	1	1	78.3336	-0.441569	-0.441521	0.0328698	2	-0.022219	39	23.716	-1.45127e-05
2	1	0	1	1	78.7336	-0.431571	-0.431528	0.0325846	2	-0.0222056	39	24.116	-1.40612e-05
2	1	0	1	1	79.1336	-0.421573	-0.421532	0.03215	2	-0.0221925	39	24.516	-1.35522e-05
2	1	0	0	1	79.5334	-0.411574	-0.411522	0.0318825	2	-0.0221794	39	24.9158	-1.31203e-05
2	1	0	0	1	79.9334	-0.401576	-0.401523	0.0314291	2	-0.0221666	39	25.3158	-1.26195e-05
2	1	0	0	1	80.3334	-0.391578	-0.391531	0.0311794	2	-0.0221538	39	25.7158	-1.22077e-05
2	1	0	1	1	80.7332	-0.381579	-0.381549	0.0309007	2	-0.0221412	39	26.1156	-1.17901e-05
2	1	0	1	1	81.1332	-0.371581	-0.371547	0.030886	2	-0.0221286	39	26.5156	-1.14756e-05
2	1	0	1	1	81.5332	-0.361583	-0.361538	0.0305299	2	-0.0221161	39	26.9156	-1.10377e-05
2	1	0	0	1	81.933	-0.351584	-0.351552	0.0302623	2	-0.0221037	39	27.3154	-1.06388e-05
2	1	0	0	1	82.333	-0.341586	-0.341545	0.0302519	2	-0.0220914	39	27.7154	-1.03324e-05
2	1	0	0	1	82.733	-0.331588	-0.331572	0.0300756	2	-0.0220791	39	28.1154	-9.9722e-06
2	1	0	1	1	83.1328	-0.321589	-0.321573	0.0299518	2	-0.0220669	39	28.5152	-9.63166e-06
2	1	0	1	1	83.5328	-0.311591	-0.311573	0.0297823	2	-0.0220548	39	28.9152	-9.27935e-06
2	1	0	1	1	83.9328	-0.301593	-0.30155	0.029821	2	-0.0220426	39	29.3152	-8.99252e-06
2	1	0	1	1	84.2972	-0.307592	-0.307584	0.0261956	2	-0.0220325	39	29.6796	-8.05734e-06
2	1	0	1	1	84.6972	-0.31759	-0.317593	0.0227894	2	-0.0220229	39	30.0796	-7.23775e-06
2	1	0	1	1	85.0972	-0.327588	-0.327569	0.0203012	2	-0.0220145	39	30.4796	-6.65006e-06
2	1	0	0	1	85.497	-0.337587	-0.337537	0.0182704	2	-0.022007	39	30.8794	-6.16695e-06
2	1	0	0	1	85.897	-0.347585	-0.347554	0.016648	2	-0.0220002	39	31.2794	-5.78609e-06
2	1	0	0	1	86.297	-0.357583	-0.357526	0.0152295	2	-0.021994	39	31.6794	-5.44493e-06
2	1	0	1	1	86.6968	-0.367582	-0.367537	0.0140872	2	-0.0219883	39	32.0792	-5.17759e-06
2	1	0	1	1	87.0968	-0.37758	-0.377523	0.0128412	2	-0.0219832	39	32.4792	-4.84786e-06
2	1	0	1	1	87.4968	-0.387578	-0.387526	0.0118819	2	-0.0219784	39	32.8792	-4.60452e-06
2	1	0	0	1	87.8966	-0.397577	-0.397535	0.0111023	2	-0.021974	39	33.279	-4.41356e-06
2	1	0	0	1	88.2966	-0.407575	-0.407533	0.0103779	2	-0.0219699	39	33.679	-4.22933e-06
2	1	0	0	1	88.6966	-0.417573	-0.417538	0.00960636	2	-0.0219661	39	34.079	-4.01102e-06
2	1	0	1	1	89.0964	-0.427572	-0.42755	0.00929837	2	-0.0219625	39	34.4788	-3.97552e-06
2	1	0	1	1	89.4964	-0.43757	-0.437529	0.00867427	2	-0.0219591	39	34.8788	-3.79524e-06
2	1	0	1	1	89.8964	-0.447568	-0.447529	0.00814089	2	-0.021956	39	35.2788	-3.64328e-06
2	1	0	0	1	90.2962	-0.457567	-0.457554	0.00774515	2	-0.021953	39	35.6786	-3.54383e-06
2	1	0	0	1	90.6962	-0.467565	-0.467524	0.00747616	2	-0.0219502	39	36.0786	-3.49529e-06
2	1	0	0	1	91.0962	-0.477563	-0.477522	0.00716368	2	-0.0219475	39	36.4786	-3.42082e-06
2	1	0	1	1	91.496	-0.487562	-0.487533	0.00661107	2	-0.021945	39	36.8784	-3.22311e-06
2	1	0	1	1	91.896	-0.49756	-0.497514	0.00638575	2	-0.0219427	39	37.2784	-3.177e-06
2	1	0	1	1	92.296	-0.507559	-0.507532	0.00617395	2	-0.0219404	39	37.6784	-3.13348e-06
2	1	0	0	1	92.6958	-0.517557	-0.517516	0.0058331	2	-0.0219383	39	38.0782	-3.01872e-06
2	1	0	0	1	93.0958	-0.527555	-0.527505	0.00566694	2	-0.0219362	39	38.4782	-2.98934e-06
2	1	0	0	1	93.4958	-0.537554	-0.537508	0.00543861	2	-0.0219343	39	38.8782	-2.9233e-06
2	1	0	1	1	93.8956	-0.547552	-0.547516	0.00518922	2	-0.0219324	39	39.278	-2.84118e-06
2	1	0	1	1	94.2956	-0.55755	-0.557515	0.00491785	2	-0.0219307	39	39.678	-2.74178e-06
2	1	0	1	1	94.6956	-0.567549	-0.56749	0.00498304	2	-0.021929	39	40.078	-2.82782e-06
2	1	0	0	1	95.0954	-0.577547	-0.577504	0.00453344	2	-0.0219274	39	40.4778	-2.61808e-06
2	1	0	0	1	95.4954	-0.587545	-0.587502	0.00445755	2	-0.0219258	39	40.8778	-2.61882e-06
2	1	0	0	1	95.8954	-0.597544	-0.597491	0.00427421	2	-0.0219244	39	41.2778	-2.5538e-06
2	1	0	1	1	96.2952	-0.607542	-0.607497	0.00403906	2	-0.021923	39	41.6776	-2.45372e-06
2	1	0	1	1	96.6952	-0.61754	-0.617497	0.00383992	2	-0.0219217	39	42.0776	-2.37114e-06
2	1	0	1	1	97.0952	-0.627539	-0.627499	0.0038326	2	-0.0219205	39	42.4776	-2.40495e-06
2	1	0	0	1	97.495	-0.637537	-0.637501	0.00365817	2	-0.0219193	39	42.8774	-2.33209e-06
2	1	0	0	1	97.895	-0.647535	-0.647477	0.00337766	2	-0.0219182	39	43.2774	-2.18696e-06
2	1	0	0	1	98.295	-0.657534	-0.657474	0.00337106	2	-0.0219172	39	43.6774	-2.21638e-06
2	1	0	1	1	98.6948	-0.667532	-0.667475	0.00320177	2	-0.0219162	39	44.0772	-2.13711e-06
2	1	0	1	1	99.0948	-0.677531	-0.677484	0.00299459	2	-0.0219153	39	44.4772	-2.02879e-06
2	1	0	1	1	99.4948	-0.687529	-0.68747	0.00263896	2	-0.0219145	39	44.8772	-1.81421e-06
2	1	0	0	1	99.8946	-0.697527	-0.697461	0.00267052	2	-0.0219137	39	45.277	-1.86259e-06
2	1	0	0	1	100.295	-0.707526	-0.707461	0.00221652	2	-0.0219131	39	45.677	-1.5681e-06
2	1	0	0	1	100.695	-0.717524	-0.717496	0.00227308	2	-0.0219126	39	46.077	-1.63093e-06
2	1	0	1	1	101.094	-0.727522	-0.727468	0.00182617	2	-0.0219121	39	46.4768	-1.32848e-06
2	1	0	1	1	101.494	-0.737521	-0.737484	0.00156522	2	-0.0219118	39	46.8768	-1.15432e-06
2	1	0	1	1	101.894	-0.747519	-0.747457	0.00109628	2	-0.0219116	39	47.2768	-8.19426e-07
2	1	0	0	1	102.294	-0.757517	-0.757468	0.000476465	2	-0.0219117	39	0.2398	-3.60907e-07
2	0	0	0	1	102.694	-0.767516	-0.767476	1.95336e-05	2	-0.0219119	39	0.6398	-1.49916e-08
2	1	0	0	1	103.094	-0.777514	-0.777443	-0.000552362	2	-0.0219124	39	1.0398	4.2943e-07
2	0	0	1	1	103.494	-0.787512	-0.787452	-0.00139191	2	-0.0219132	39	1.4396	1.09606e-06
2	0	0	1	1	103.894	-0.797511	-0.79745	-0.00213088	2	-0.0219143	39	1.8396	1.69927e-06
2	0	0	1	1	104.294	-0.807509	-0.807443	-0.00290265	2	-0.0219158	39	2.2396	2.34372e-06
2	0	0	0	1	104.694	-0.817507	-0.817441	-0.00392709	2	-0.0219176	39	2.6394	3.21016e-06
2	0	0	0	1	105.094	-0.827506	-0.827423	-0.00470299	2	-0.0219198	39	3.0394	3.89136e-06
2	0	0	0	1	105.494	-0.837504	-0.837445	-0.00532867	2	-0.0219222	39	3.4394	4.46247e-06
2	0	0	1	1	105.894	-0.847503	-0.847408	-0.00562787	2	-0.0219249	39	3.8392	4.7691e-06
2	0	0	1	1	106.294	-0.857501	-0.857433	-0.0059833	2	-0.0219276	39	4.2392	5.13028e-06
2	0	0	1	1	106.694	-0.867499	-0.867404	-0.00613702	2	-0.0219305	39	4.6392	5.32327e-06
2	0	0	0	1	107.093	-0.877498	-0.877414	-0.005777	2	-0.0219332	39	5.039	5.06882e-06
2	0	0	0	1	107.493	-0.887496	-0.887431	-0.00573843	2	-0.021936	39	5.439	5.09246e-06
2	0	0	0	1	107.893	-0.897494	-0.897428	-0.00602156	2	-0.0219388	39	5.839	5.40391e-06
2	0	0	1	1	108.293	-0.907493	-0.907411	-0.00649316	2	-0.0219417	39	6.2388	5.89196e-06
2	0	0	1	1	108.693	-0.917491	-0.917409	-0.00762957	2	-0.021945	39	6.6388	6.99944e-06
2	0	0	1	1	109.093	-0.927489	-0.927421	-0.0092247	2	-0.0219488	39	7.0388	8.55519e-06
2	0	0	0	1	109.493	-0.937488	-0.937427	-0.0116206	2	-0.0219534	39	7.4386	1.08935e-05
2	0	0	0	1	109.893	-0.947486	-0.947395	-0.0142565	2	-0.0219591	39	7.8386	1.35065e-05
2	0	0	0	1	110.293	-0.957484	-0.957416	-0.0178182	2	-0.021966	39	8.2386	1.70594e-05
2	0	0	1	1	110.693	-0.967483	-0.967397	-0.0208859	2	-0.0219742	39	8.6384	2.0205e-05
2	0	0	1	1	111.093	-0.977481	-0.977386	-0.0242557	2	-0.0219836	39	9.0384	2.37072e-05
2	0	0	1	1	111.493	-0.987479	-0.987416	-0.0274658	2	-0.0219945	39	9.4384	2.71202e-05
2	0	0	0	1	111.893	-0.997478	-0.997399	-0.0316258	2	-0.0220068	39	9.8382	3.15436e-05
2	0	0	0	1	112.293	-1.00748	-1.00737	-0.0369259	2	-0.0220209	39	10.2382	3.71981e-05
2	0	0	0	1	112.693	-1.01747	-1.0174	-0.0445529	2	-0.0220377	39	10.6382	4.5328e-05
2	0	0	1	1	113.092	-1.02747	-1.02741	-0.0548934	2	-0.022058	39	11.038	5.63978e-05
2	0	0	1	1	113.492	-1.03747	-1.03741	-0.0693307	2	-0.0220832	39	11.438	7.19246e-05
2	0	0	1	1	113.892	-1.04747	-1.04739	-0.0930231	2	-0.0221157	39	11.838	9.74314e-05
2	0	0	1	1	114.292	-1.05747	-1.0574	-0.146078	2	-0.0221628	39	12.2379	0.000154462
2	0	0	0	1	114.692	-1.06747	-1.06739	-0.201356	2	-0.0222333	39	12.6378	0.000214926
2	0	0	0	1	115.092	-1.07746	-1.07738	-0.21083	2	-0.0223189	39	13.0378	0.000227144
2	0	0	1	1	115.492	-1.08746	-1.0874	-0.184566	2	-0.022398	39	13.4377	0.000200696
2	0	0	1	1	115.892	-1.09746	-1.09738	-0.167477	2	-0.0224683	39	13.8376	0.000183785
2	0	0	1	1	116.292	-1.10746	-1.10736	-0.161407	2	-0.0225349	39	14.2376	0.000178735
2	0	0	1	1	116.692	-1.11746	-1.11737	-0.157595	2	-0.0225993	39	14.6376	0.000176093
2	0	0	0	1	117.092	-1.12746	-1.12737	-0.154008	2	-0.0226622	39	15.0374	0.000173624
2	0	0	0	1	117.492	-1.13745	-1.13737	-0.152152	2	-0.0227241	39	15.4374	0.000173053
2	0	0	1	1	117.892	-1.14745	-1.14738	-0.15307	2	-0.0227856	39	15.8373	0.00017563
2	0	0	1	1	118.292	-1.15745	-1.15736	-0.158232	2	-0.0228483	39	16.2372	0.000183131
2	0	0	1	1	118.692	-1.16745	-1.16739	-0.169195	2	-0.0229142	39	16.6372	0.000197516
2	0	0	1	1	119.092	-1.17745	-1.17739	-0.185047	2	-0.0229855	39	17.0372	0.000217872
2	0	0	0	1	119.491	-1.18745	-1.18736	-0.20594	2	-0.0230641	39	17.437	0.000244526
2	0	0	0	1	119.891	-1.19744	-1.19738	-0.232954	2	-0.0231523	39	17.837	0.000278935
2	0	0	0	1	120.291	-1.20744	-1.20736	-0.267146	2	-0.0232527	39	18.237	0.000322542
2	0	0	1	1	120.691	-1.21744	-1.21738	-0.309888	2	-0.0233684	39	18.6368	0.00037725
2	0	0	1	1	121.091	-1.22744	-1.22736	-0.36234	2	-0.0235031	39	19.0368	0.000444721
2	0	0	1	1	121.491	-1.23744	-1.23736	-0.426992	2	-0.0236613	39	19.4368	0.000528343
2	0	0	0	1	121.891	-1.24744	-1.24736	-0.50606	2	-0.0238481	39	19.8366	0.000631241
2	0	0	0	1	122.291	-1.25744	-1.25737	-0.599271	2	-0.0240693	39	20.2366	0.000753503
2	0	0	0	1	122.691	-1.26743	-1.26737	-0.712598	2	-0.0243317	39	20.6366	0.000903128
2	0	0	1	1	123.091	-1.27743	-1.27734	-0.850685	2	-0.0246443	39	21.0364	0.00108661
2	0	0	1	1	123.491	-1.28743	-1.28732	-1.01823	2	-0.0250178	39	21.4364	0.00131079
2	0	0	1	1	123.891	-1.29743	-1.29733	-1.22403	2	-0.0254661	39	21.8364	0.00158797
2	0	0	0	1	124.291	-1.30743	-1.30733	-1.47531	2	-0.0260053	39	22.2362	0.00192872
2	0	0	0	1	124.691	-1.31743	-1.31734	-1.78403	2	-0.0266559	39	22.6362	0.00235016
2	0	0	0	1	125.091	-1.32742	-1.32734	-2.1584	2	-0.0274434	39	23.0362	0.00286494
2	0	0	1	1	125.49	-1.33742	-1.33735	-2.62947	2	-0.0283988	39	23.436	0.00351652
2	0	0	1	1	125.89	-1.34742	-1.34734	-3.22402	2	-0.0295676	39	23.836	0.00434387
2	0	0	1	0	126.255	-1.34342	-1.34336	-3.08314	3	-0.0307554	39	24.2004	0.00414176
2	0	0	1	0	126.655	-1.33342	-1.33333	-2.59574	3	-0.0318875	39	24.6004	0.00346099
2	0	0	0	0	127.055	-1.32342	-1.32335	-2.16296	3	-0.032836	39	25.0002	0.00286235
2	0	0	0	0	127.455	-1.31343	-1.31335	-1.79805	3	-0.0336253	39	25.4002	0.00236148
2	0	0	0	0	127.855	-1.30343	-1.30335	-1.49627	3	-0.0342809	39	25.8002	0.00195016
2	0	0	1	0	128.254	-1.29343	-1.29334	-1.24364	3	-0.0348254	39	26.2	0.00160845
2	0	0	1	0	128.654	-1.28343	-1.28335	-1.03886	3	-0.0352796	39	26.6	0.00133322
2	0	0	1	0	129.054	-1.27343	-1.27334	-0.873606	3	-0.0356598	39	27	0.0011124
2	0	0	0	0	129.454	-1.26343	-1.26334	-0.73785	3	-0.0359803	39	27.3998	0.000932154
2	0	0	0	0	129.854	-1.25344	-1.25336	-0.633449	3	-0.0362534	39	27.7998	0.000793939
2	0	0	0	0	130.254	-1.24344	-1.24338	-0.542844	3	-0.0364873	39	28.1998	0.000674963
2	0	0	1	0	130.654	-1.23344	-1.23336	-0.469807	3	-0.0366885	39	28.5996	0.000579442
2	0	0	1	0	131.054	-1.22344	-1.22337	-0.41105	3	-0.0368637	39	28.9996	0.000502868
2	0	0	1	0	131.454	-1.21344	-1.21335	-0.362114	3	-0.0370175	39	29.3996	0.000439371
2	0	0	0	0	131.854	-1.20344	-1.20335	-0.321304	3	-0.0371533	39	29.7994	0.000386641
2	0	0	0	0	132.254	-1.19345	-1.19337	-0.285728	3	-0.0372739	39	30.1994	0.000340979
2	0	0	0	0	132.654	-1.18345	-1.18336	-0.253664	3	-0.0373811	39	30.5994	0.000300176
2	0	0	1	0	133.054	-1.17345	-1.17338	-0.224121	3	-0.037476	39	30.9992	0.00026298
2	0	0	1	0	133.454	-1.16345	-1.16337	-0.196086	3	-0.0375594	39	31.3992	0.00022812
2	0	0	1	0	133.854	-1.15345	-1.15338	-0.169308	3	-0.0376318	39	31.7992	0.000195276
2	0	0	0	0	134.253	-1.14345	-1.14339	-0.143694	3	-0.0376937	39	32.199	0.000164299
2	0	0	0	0	134.653	-1.13346	-1.1334	-0.119219	3	-0.0377455	39	32.599	0.000135122
2	0	0	0	0	135.053	-1.12346	-1.12338	-0.0971305	3	-0.0377881	39	32.999	0.000109115
2	0	0	1	0	135.453	-1.11346	-1.11339	-0.078237	3	-0.0378224	39	33.3988	8.71084e-05
2	0	0	1	0	135.853	-1.10346	-1.10336	-0.061909	3	-0.0378496	39	33.7988	6.83079e-05
2	0	0	1	0	136.253	-1.09346	-1.09339	-0.048596	3	-0.037871	39	34.1988	5.31341e-05
2	0	0	0	0	136.653	-1.08346	-1.08338	-0.0379601	3	-0.0378876	39	34.5986	4.11253e-05
2	0	0	0	0	137.053	-1.07347	-1.07339	-0.0292013	3	-0.0379002	39	34.9986	3.13444e-05
2	0	0	0	0	137.453	-1.06347	-1.06339	-0.0220739	3	-0.0379097	39	35.3986	2.34732e-05
2	0	0	1	0	137.853	-1.05347	-1.05342	-0.0156195	3	-0.0379164	39	35.7984	1.64539e-05
2	0	0	1	0	138.253	-1.04347	-1.04341	-0.0085911	3	-0.0379204	39	36.1984	8.96405e-06
2	0	0	1	0	138.653	-1.03347	-1.03341	0.00112399	3	-0.0379212	39	0.08	-1.16154e-06
2	1	0	0	0	139.053	-1.02347	-1.0234	0.0143466	3	-0.0379172	39	0.4798	-1.46823e-05
2	1	0	0	0	139.453	-1.01348	-1.01341	0.0209987	3	-0.0379089	39	0.8798	-2.12802e-05
2	1	0	0	0	139.853	-1.00348	-1.0034	0.0186941	3	-0.0378999	39	1.2798	-1.87576e-05
2	1	0	1	0	140.252	-0.993478	-0.993401	0.0167461	3	-0.0378923	39	1.6796	-1.66356e-05
2	1	0	1	0	140.652	-0.98348	-0.983384	0.0195774	3	-0.0378845	39	2.0796	-1.92521e-05
2	1	0	1	0	141.052	-0.973482	-0.973415	0.0248525	3	-0.0378751	39	2.4796	-2.41918e-05
2	1	0	0	0	141.452	-0.963483	-0.963416	0.0336289	3	-0.0378629	39	2.8794	-3.23986e-05
2	1	0	0	0	141.852	-0.953485	-0.953422	0.0463429	3	-0.0378465	39	3.2794	-4.41844e-05
2	1	0	0	0	142.252	-0.943487	-0.943443	0.0631255	3	-0.0378243	39	3.6794	-5.95553e-05
2	1	0	1	0	142.652	-0.933488	-0.933435	0.0835263	3	-0.0377945	39	4.0792	-7.79664e-05
2	1	0	1	0	143.052	-0.92349	-0.923461	0.105746	3	-0.0377561	39	4.4792	-9.76526e-05
2	1	0	1	0	143.452	-0.913492	-0.913433	0.127957	3	-0.0377088	39	4.8792	-0.00011688
2	1	0	0	0	143.852	-0.903493	-0.903433	0.150089	3	-0.0376527	39	5.279	-0.000135595
2	1	0	0	0	144.252	-0.893495	-0.893433	0.170601	3	-0.0375879	39	5.679	-0.000152421
2	1	0	0	0	144.652	-0.883497	-0.883429	0.18451	3	-0.0375161	39	6.079	-0.000163001
2	1	0	1	0	145.052	-0.873498	-0.873447	0.184002	3	-0.0374413	39	6.4788	-0.000160716
2	1	0	1	0	145.452	-0.8635	-0.863434	0.168784	3	-0.0373699	39	6.8788	-0.000145734
2	1	0	1	0	145.852	-0.853502	-0.853408	0.150204	3	-0.0373056	39	7.2788	-0.000128186
2	1	0	0	0	146.251	-0.843503	-0.843451	0.131772	3	-0.0372488	39	7.6786	-0.000111143
2	1	0	0	0	146.651	-0.833505	-0.833459	0.114686	3	-0.0371991	39	8.0786	-9.55857e-05
2	1	0	0	0	147.051	-0.823506	-0.823427	0.0999731	3	-0.0371558	39	8.4786	-8.23206e-05
2	1	0	1	0	147.451	-0.813508	-0.813453	0.0878621	3	-0.0371179	39	8.8784	-7.14717e-05
2	1	0	1	0	147.851	-0.80351	-0.80342	0.0779722	3	-0.0370844	39	9.2784	-6.26444e-05
2	1	0	1	0	148.251	-0.793511	-0.793448	0.0700072	3	-0.0370545	39	9.6784	-5.55471e-05
2	1	0	0	0	148.651	-0.783513	-0.783447	0.0630644	3	-0.0370276	39	10.0782	-4.94077e-05
2	1	0	0	0	149.051	-0.773515	-0.773434	0.0573492	3	-0.0370031	39	10.4782	-4.43558e-05
2	1	0	0	0	149.451	-0.763516	-0.763453	0.0524164	3	-0.0369808	39	10.8782	-4.00174e-05
2	1	0	1	0	149.851	-0.753516	-0.753462	0.0482744	3	-0.0369604	39	11.2781	-3.63729e-05
2	1	0	1	0	150.251	-0.74352	-0.743475	0.0447749	3	-0.0369415	39	11.678	-3.3289e-05
2	1	0	1	0	150.651	-0.733521	-0.733484	0.0413759	3	-0.036924	39	12.078	-3.03486e-05
2	1	0	1	0	151.051	-0.723521	-0.723478	0.0387832	3	-0.0369077	39	12.4779	-2.80588e-05
2	1	0	0	0	151.451	-0.713525	-0.713479	0.036619	3	-0.0368924	39	12.8778	-2.61269e-05
2	1	0	0	0	151.851	-0.703526	-0.703493	0.0346723	3	-0.0368778	39	13.2778	-2.43917e-05
2	1	0	1	0	152.25	-0.693528	-0.693498	0.0331213	3	-0.0368639	39	13.6777	-2.29695e-05
2	1	0	1	0	152.65	-0.68353	-0.683493	0.0319891	3	-0.0368507	39	14.0776	-2.18643e-05
2	1	0	1	0	153.05	-0.673531	-0.673487	0.0308639	3	-0.0368378	39	14.4776	-2.07864e-05
2	1	0	1	0	153.45	-0.663535	-0.663479	0.0301075	3	-0.0368253	39	14.8775	-1.99757e-05
2	1	0	0	0	153.85	-0.653535	-0.653488	0.0296942	3	-0.0368131	39	15.2774	-1.94048e-05
2	1	0	0	0	154.25	-0.643536	-0.643483	0.0293209	3	-0.0368011	39	15.6774	-1.88675e-05
2	1	0	0	0	154.65	-0.633538	-0.633479	0.0288624	3	-0.0367892	39	16.0774	-1.82837e-05
2	1	0	1	0	155.05	-0.623539	-0.623479	0.0284747	3	-0.0367776	39	16.4772	-1.77534e-05
2	1	0	1	0	155.45	-0.613541	-0.613489	0.0281731	3	-0.036766	39	16.8772	-1.72839e-05
2	1	0	1	0	155.85	-0.603543	-0.603485	0.0275877	3	-0.0367546	39	17.2772	-1.66487e-05
2	1	0	0	0	156.25	-0.593544	-0.593485	0.0274391	3	-0.0367433	39	17.677	-1.62847e-05
2	1	0	0	0	156.65	-0.583546	-0.583489	0.0270343	3	-0.0367321	39	18.077	-1.57742e-05
2	1	0	0	0	157.05	-0.573548	-0.573497	0.0266552	3	-0.0367212	39	18.477	-1.52867e-05
2	1	0	1	0	157.45	-0.563549	-0.5635	0.026172	3	-0.0367104	39	18.8768	-1.47479e-05
2	1	0	1	0	157.85	-0.553551	-0.553503	0.0257386	3	-0.0366998	39	19.2768	-1.42464e-05
2	1	0	1	0	158.25	-0.543553	-0.543503	0.0252434	3	-0.0366894	39	19.6768	-1.37199e-05
2	1	0	0	0	158.649	-0.533554	-0.533498	0.0246068	3	-0.0366792	39	20.0766	-1.31277e-05
2	1	0	0	0	159.049	-0.523556	-0.523492	0.0240978	3	-0.0366692	39	20.4766	-1.2615e-05
2	1	0	0	0	159.449	-0.513558	-0.513523	0.0236358	3	-0.0366594	39	20.8766	-1.21375e-05
2	1	0	1	0	159.849	-0.503559	-0.503515	0.023167	3	-0.0366498	39	21.2764	-1.16649e-05
2	1	0	1	0	160.249	-0.493561	-0.493497	0.0227014	3	-0.0366403	39	21.6764	-1.12031e-05
2	1	0	1	0	160.649	-0.483563	-0.483511	0.0225244	3	-0.0366311	39	22.0764	-1.08908e-05
2	1	0	0	0	161.049	-0.473564	-0.473523	0.0220243	3	-0.0366219	39	22.4762	-1.0429e-05
2	1	0	0	0	161.449	-0.463566	-0.463499	0.0219394	3	-0.0366129	39	22.8762	-1.01689e-05
2	1	0	0	0	161.849	-0.453567	-0.453511	0.0215395	3	-0.036604	39	23.2762	-9.76842e-06
2	1	0	1	0	162.249	-0.443569	-0.443523	0.0212175	3	-0.0365952	39	23.676	-9.41046e-06
2	1	0	1	0	162.649	-0.433571	-0.43351	0.0210766	3	-0.0365865	39	24.076	-9.13692e-06
2	1	0	1	0	163.049	-0.423572	-0.423528	0.0209623	3	-0.0365779	39	24.476	-8.87811e-06
2	1	0	0	0	163.449	-0.413574	-0.413533	0.0207186	3	-0.0365694	39	24.8758	-8.56782e-06
2	1	0	0	0	163.849	-0.403576	-0.403527	0.0206833	3	-0.0365609	39	25.2758	-8.34627e-06
2	1	0	0	0	164.249	-0.393577	-0.393511	0.0205242	3	-0.0365524	39	25.6758	-8.07649e-06
2	1	0	1	0	164.648	-0.383579	-0.383516	0.0204979	3	-0.0365439	39	26.0756	-7.86129e-06
2	1	0	1	0	165.048	-0.373581	-0.373525	0.0203753	3	-0.0365355	39	26.4756	-7.61069e-06
2	1	0	1	0	165.448	-0.363582	-0.363519	0.0204019	3	-0.0365272	39	26.8756	-7.41649e-06
2	1	0	0	0	165.848	-0.353584	-0.353537	0.0203796	3	-0.0365188	39	27.2754	-7.20494e-06
2	1	0	0	0	166.248	-0.343586	-0.343517	0.0202664	3	-0.0365105	39	27.6754	-6.96184e-06
2	1	0	0	0	166.648	-0.333587	-0.333525	0.0203907	3	-0.0365021	39	28.0754	-6.80082e-06
2	1	0	1	0	167.048	-0.323589	-0.323537	0.0203498	3	-0.0364938	39	28.4752	-6.58392e-06
2	1	0	1	0	167.448	-0.313591	-0.313545	0.0203259	3	-0.0364854	39	28.8752	-6.37306e-06
2	1	0	1	0	167.848	-0.303592	-0.303547	0.020434	3	-0.036477	39	29.2752	-6.20267e-06
2	1	0	1	0	168.212	-0.305592	-0.30554	0.0185848	3	-0.0364699	39	29.6396	-5.67838e-06
2	1	0	1	0	168.612	-0.31559	-0.315542	0.0163298	3	-0.0364631	39	30.0396	-5.15276e-06
2	1	0	1	0	169.012	-0.325589	-0.325559	0.0148356	3	-0.0364571	39	30.4396	-4.82987e-06
2	1	0	0	0	169.412	-0.335587	-0.335535	0.0133176	3	-0.0364517	39	30.8394	-4.46851e-06
2	1	0	0	0	169.812	-0.345585	-0.34555	0.0121721	3	-0.0364468	39	31.2394	-4.20609e-06
2	1	0	0	0	170.212	-0.355584	-0.355544	0.0112858	3	-0.0364423	39	31.6394	-4.01261e-06
2	1	0	1	0	170.612	-0.365582	-0.36555	0.0106307	3	-0.0364381	39	32.0392	-3.88607e-06
2	1	0	1	0	171.012	-0.37558	-0.375541	0.00990028	3	-0.0364343	39	32.4392	-3.71796e-06
2	1	0	1	0	171.412	-0.385579	-0.385549	0.00921416	3	-0.0364307	39	32.8392	-3.55251e-06
2	1	0	0	0	171.812	-0.395577	-0.395528	0.00876427	3	-0.0364274	39	33.239	-3.46652e-06
2	1	0	0	0	172.212	-0.405575	-0.405552	0.00803583	3	-0.0364242	39	33.639	-3.25895e-06
2	1	0	0	0	172.612	-0.415574	-0.415531	0.00759874	3	-0.0364213	39	34.039	-3.15751e-06
2	1	0	1	0	173.012	-0.425572	-0.425549	0.0073005	3	-0.0364185	39	34.4388	-3.10672e-06
2	1	0	1	0	173.412	-0.43557	-0.435537	0.00702217	3	-0.0364159	39	34.8388	-3.05842e-06
2	1	0	1	0	173.812	-0.445569	-0.445521	0.00670932	3	-0.0364134	39	35.2388	-2.98915e-06
2	1	0	0	0	174.211	-0.455567	-0.455534	0.00653821	3	-0.036411	39	35.6386	-2.97838e-06
2	1	0	0	0	174.611	-0.465566	-0.465516	0.00622471	3	-0.0364088	39	36.0386	-2.8977e-06
2	1	0	0	0	175.011	-0.475564	-0.475505	0.00598981	3	-0.0364066	39	36.4386	-2.84818e-06
2	1	0	1	0	175.411	-0.485562	-0.485528	0.00570956	3	-0.0364045	39	36.8384	-2.77215e-06
2	1	0	1	0	175.811	-0.495561	-0.495501	0.00556522	3	-0.0364024	39	37.2384	-2.75757e-06
2	1	0	1	0	176.211	-0.505559	-0.505518	0.00540508	3	-0.0364005	39	37.6384	-2.73237e-06
2	1	0	0	0	176.611	-0.515557	-0.515513	0.00530724	3	-0.0363986	39	38.0382	-2.73595e-06
2	1	0	0	0	177.011	-0.525556	-0.525523	0.00515429	3	-0.0363968	39	38.4382	-2.7087e-06
2	1	0	0	0	177.411	-0.535554	-0.535519	0.00495886	3	-0.036395	39	38.8382	-2.65556e-06
2	1	0	1	0	177.811	-0.545552	-0.545499	0.00477854	3	-0.0363933	39	39.238	-2.60669e-06
2	1	0	1	0	178.211	-0.555551	-0.555509	0.00477502	3	-0.0363916	39	39.638	-2.65256e-06
2	1	0	1	0	178.611	-0.565549	-0.565484	0.00483886	3	-0.03639	39	40.038	-2.73629e-06
2	1	0	0	0	179.011	-0.575547	-0.575501	0.00463317	3	-0.0363884	39	40.4378	-2.66639e-06
2	1	0	0	0	179.411	-0.585546	-0.58551	0.00439578	3	-0.0363869	39	40.8378	-2.57378e-06
2	1	0	0	0	179.811	-0.595544	-0.595511	0.00424276	3	-0.0363854	39	41.2378	-2.52661e-06
2	1	0	1	0	180.21	-0.605542	-0.605508	0.00403649	3	-0.036384	39	41.6376	-2.44413e-06
2	1	0	1	0	180.61	-0.615541	-0.615507	0.00400373	3	-0.0363826	39	42.0376	-2.46432e-06
2	1	0	1	0	181.01	-0.625539	-0.625505	0.00388845	3	-0.0363813	39	42.4376	-2.43224e-06
2	1	0	0	0	181.41	-0.635537	-0.635483	0.00391301	3	-0.03638	39	42.8374	-2.48665e-06
2	1	0	0	0	181.81	-0.645536	-0.645497	0.00365066	3	-0.0363788	39	43.2374	-2.35649e-06
2	1	0	0	0	182.21	-0.655534	-0.655496	0.00359044	3	-0.0363775	39	43.6374	-2.35352e-06
2	1	0	1	0	182.61	-0.665533	-0.665476	0.00357687	3	-0.0363764	39	44.0372	-2.38032e-06
2	1	0	1	0	183.01	-0.675531	-0.675462	0.00354197	3	-0.0363752	39	44.4372	-2.39247e-06
2	1	0	1	0	183.41	-0.685529	-0.685491	0.0034669	3	-0.0363741	39	44.8372	-2.37653e-06
2	1	0	0	0	183.81	-0.695528	-0.695484	0.00333441	3	-0.0363731	39	45.237	-2.31903e-06
2	1	0	0	0	184.21	-0.705526	-0.705483	0.00321113	3	-0.0363721	39	45.637	-2.2654e-06
2	1	0	0	0	184.61	-0.715524	-0.715498	0.0030148	3	-0.0363712	39	46.037	-2.15709e-06
2	1	0	1	0	185.01	-0.725523	-0.725486	0.00280333	3	-0.0363703	39	46.4368	-2.03377e-06
2	1	0	1	0	185.41	-0.735521	-0.735505	0.00270029	3	-0.0363695	39	46.8368	-1.98608e-06
2	1	0	1	0	185.81	-0.745519	-0.745479	0.00227601	3	-0.0363688	39	47.2368	-1.69672e-06
2	1	0	0	0	186.209	-0.755518	-0.755475	0.0019636	3	-0.0363682	39	47.6366	-1.48345e-06
2	1	0	0	0	186.609	-0.765516	-0.765445	0.00181889	3	-0.0363677	39	48.0366	-1.39226e-06
2	1	0	0	0	187.009	-0.775514	-0.775456	0.00134807	3	-0.0363674	39	48.4366	-1.04537e-06
2	1	0	1	0	187.409	-0.785513	-0.785472	0.000778863	3	-0.0363673	39	48.8364	-6.11775e-07
2	1	0	1	0	187.809	-0.795511	-0.795466	0.000333863	3	-0.0363673	39	0.28	-2.65577e-07
2	0	0	1	0	188.209	-0.805509	-0.805457	-0.000223584	3	-0.0363676	39	0.68	1.80088e-07
2	0	0	0	0	188.609	-0.815508	-0.81544	-0.000713642	3	-0.0363681	39	1.0798	5.81932e-07
2	0	0	0	0	189.009	-0.825506	-0.825459	-0.00129297	3	-0.0363689	39	1.4798	1.06729e-06
2	0	0	0	0	189.409	-0.835504	-0.835469	-0.00163397	3	-0.0363698	39	1.8798	1.36513e-06
2	0	0	1	0	189.809	-0.845505	-0.845464	-0.00178937	3	-0.0363709	39	2.2797	1.51285e-06
2	0	0	1	0	190.209	-0.855501	-0.855442	-0.0021101	3	-0.0363721	39	2.6796	1.80507e-06
2	0	0	1	0	190.609	-0.865499	-0.865457	-0.00239293	3	-0.0363733	39	3.0796	2.07098e-06
2	0	0	1	0	191.009	-0.875498	-0.87544	-0.00227694	3	-0.0363746	39	3.4795	1.99333e-06
2	0	0	0	0	191.409	-0.885496	-0.88545	-0.00233066	3	-0.0363759	39	3.8794	2.06369e-06
2	0	0	0	0	191.809	-0.895495	-0.895415	-0.00258498	3	-0.0363773	39	4.2794	2.31463e-06
2	0	0	1	0	192.208	-0.905491	-0.905418	-0.00328241	3	-0.0363789	39	4.6793	2.97196e-06
2	0	0	1	0	192.608	-0.915491	-0.915437	-0.00438807	3	-0.0363808	39	5.0792	4.017e-06
2	0	0	1	0	193.008	-0.92549	-0.925424	-0.00581408	3	-0.0363833	39	5.4792	5.38049e-06
2	0	0	1	0	193.408	-0.935488	-0.935444	-0.00807039	3	-0.0363864	39	5.8792	7.5494e-06
2	0	0	0	0	193.808	-0.945486	-0.945428	-0.0103941	3	-0.0363905	39	6.279	9.82691e-06
2	0	0	0	0	194.208	-0.955485	-0.955415	-0.0130032	3	-0.0363956	39	6.679	1.24234e-05
2	0	0	0	0	194.608	-0.965483	-0.96541	-0.0156197	3	-0.0364018	39	7.079	1.50794e-05
2	0	0	1	0	195.008	-0.975481	-0.975422	-0.0185865	3	-0.036409	39	7.4788	1.81297e-05
2	0	0	1	0	195.408	-0.98548	-0.98542	-0.0217072	3	-0.0364175	39	7.8788	2.13907e-05
2	0	0	1	0	195.808	-0.995478	-0.995425	-0.0254225	3	-0.0364273	39	8.2788	2.53062e-05
2	0	0	0	0	196.208	-1.00548	-1.0054	-0.0296752	3	-0.0364388	39	8.6786	2.98354e-05
2	0	0	0	0	196.608	-1.01547	-1.01542	-0.0359206	3	-0.0364524	39	9.0786	3.64746e-05
2	0	0	0	0	197.008	-1.02547	-1.02542	-0.0440638	3	-0.0364687	39	9.4786	4.51839e-05
2	0	0	1	0	197.408	-1.03547	-1.03543	-0.0586353	3	-0.0364893	39	9.8784	6.07127e-05
2	0	0	1	0	197.808	-1.04547	-1.04542	-0.0867841	3	-0.0365184	39	10.2784	9.07257e-05
2	0	0	1	0	198.208	-1.05547	-1.05541	-0.136866	3	-0.0365633	39	10.6784	0.000144449
2	0	0	0	0	198.607	-1.06547	-1.06541	-0.159483	3	-0.0366251	39	11.0782	0.000169915
2	0	0	0	0	199.007	-1.07546	-1.07541	-0.140533	3	-0.036686	39	11.4782	0.00015113
2	0	0	0	0	199.407	-1.08546	-1.0854	-0.119718	3	-0.0367388	39	11.8782	0.000129942
2	0	0	1	0	199.807	-1.09546	-1.09539	-0.106219	3	-0.0367844	39	12.278	0.000116351
2	0	0	1	0	200.207	-1.10546	-1.10539	-0.0955783	3	-0.0368253	39	12.678	0.000105651
2	0	0	1	0	200.607	-1.11546	-1.11536	-0.0878215	3	-0.0368625	39	13.078	9.79529e-05
2	0	0	0	0	201.007	-1.12546	-1.12541	-0.0834541	3	-0.0368971	39	13.4778	9.39197e-05
2	0	0	0	0	201.407	-1.13546	-1.13539	-0.0819472	3	-0.0369305	39	13.8778	9.30418e-05
2	0	0	0	0	201.807	-1.14545	-1.14538	-0.083381	3	-0.0369641	39	14.2778	9.55029e-05
2	0	0	1	0	202.207	-1.15545	-1.15537	-0.0874465	3	-0.0369987	39	14.6776	0.000101033
2	0	0	1	0	202.607	-1.16545	-1.16537	-0.0941139	3	-0.0370355	39	15.0776	0.000109677
2	0	0	1	0	203.007	-1.17545	-1.17539	-0.103576	3	-0.0370755	39	15.4776	0.000121742
2	0	0	0	0	203.407	-1.18545	-1.18537	-0.116383	3	-0.0371199	39	15.8774	0.000137957
2	0	0	0	0	203.807	-1.19545	-1.19539	-0.133362	3	-0.0371702	39	16.2774	0.000159421
2	0	0	0	0	204.207	-1.20544	-1.20536	-0.154634	3	-0.0372282	39	16.6774	0.00018639
2	0	0	1	0	204.606	-1.21544	-1.21537	-0.181666	3	-0.0372957	39	17.0772	0.000220791
2	0	0	1	0	205.006	-1.22544	-1.22537	-0.214541	3	-0.0373753	39	17.4772	0.000262892
2	0	0	1	0	205.406	-1.23544	-1.23535	-0.253908	3	-0.0374693	39	17.8772	0.000313666
2	0	0	0	0	205.806	-1.24544	-1.24538	-0.301916	3	-0.0375807	39	18.277	0.000375999
2	0	0	0	0	206.206	-1.25544	-1.25535	-0.360599	3	-0.0377134	39	18.677	0.000452676
2	0	0	0	0	206.606	-1.26543	-1.26534	-0.433534	3	-0.0378723	39	19.077	0.000548569
2	0	0	1	0	207.006	-1.27543	-1.27537	-0.52545	3	-0.0380639	39	19.4768	0.000670143
2	0	0	1	0	207.406	-1.28543	-1.28536	-0.635286	3	-0.038296	39	19.8768	0.000816573
2	0	0	1	0	207.806	-1.29543	-1.29533	-0.766956	3	-0.0385764	39	20.2768	0.000993461
2	0	0	0	0	208.206	-1.30543	-1.30534	-0.924152	3	-0.0389141	39	20.6766	0.00120633
2	0	0	0	0	208.606	-1.31543	-1.31531	-1.11547	3	-0.0393218	39	21.0766	0.00146719
2	0	0	0	0	209.006	-1.32542	-1.32532	-1.34501	3	-0.0398139	39	21.4766	0.00178257
2	0	0	1	0	209.406	-1.33542	-1.33535	-1.61648	3	-0.0404057	39	21.8764	0.00215857
2	0	0	1	0	209.806	-1.34542	-1.34535	-1.9453	3	-0.0411175	39	22.2764	0.00261712
2	0	0	1	1	210.17	-1.34542	-1.34535	-1.95313	3	-0.0418572	39	22.6408	0.00262763
2	0	0	1	1	210.57	-1.33542	-1.33533	-1.64109	3	-0.0425731	39	23.0408	0.00219141
2	0	0	0	1	210.97	-1.32542	-1.32532	-1.37311	3	-0.0431729	39	23.4406	0.00181982
2	0	0	0	1	211.37	-1.31543	-1.31532	-1.15105	3	-0.0436752	39	23.8406	0.00151401
2	0	0	0	1	211.77	-1.30543	-1.30535	-0.964965	3	-0.044096	39	24.2406	0.00125962
2	0	0	1	1	212.17	-1.29543	-1.29535	-0.812084	3	-0.0444493	39	24.6404	0.00105193
2	0	0	1	1	212.57	-1.28543	-1.28535	-0.68694	3	-0.0447475	39	25.0404	0.000882955
2	0	0	1	1	212.97	-1.27543	-1.27536	-0.58557	3	-0.0450006	39	25.4404	0.000746812
2	0	0	0	1	213.369	-1.26543	-1.26536	-0.502522	3	-0.0452168	39	25.8402	0.000635873
2	0	0	0	1	213.769	-1.25544	-1.25534	-0.435867	3	-0.0454033	39	26.2402	0.000547161
2	0	0	0	1	214.169	-1.24544	-1.24537	-0.381129	3	-0.0455658	39	26.6402	0.000474645
2	0	0	1	1	214.569	-1.23544	-1.23536	-0.336366	3	-0.0457084	39	27.04	0.000415534
2	0	0	1	1	214.969	-1.22544	-1.22534	-0.299942	3	-0.0458349	39	27.44	0.000367532
2	0	0	1	1	215.369	-1.21544	-1.21533	-0.269543	3	-0.0459482	39	27.84	0.000327584
2	0	0	0	1	215.769	-1.20544	-1.20535	-0.244294	3	-0.0460503	39	28.2398	0.000294459
2	0	0	0	1	216.169	-1.19545	-1.19536	-0.2217	3	-0.0461429	39	28.6398	0.000265012
2	0	0	0	1	216.569	-1.18545	-1.18536	-0.201165	3	-0.046227	39	29.0398	0.000238453
2	0	0	1	1	216.969	-1.17545	-1.17534	-0.181216	3	-0.046303	39	29.4396	0.000212991
2	0	0	1	1	217.369	-1.16545	-1.16535	-0.161389	3	-0.0463711	39	29.8396	0.000188075
2	0	0	1	1	217.769	-1.15545	-1.15534	-0.141596	3	-0.0464312	39	30.2396	0.000163592
2	0	0	0	1	218.169	-1.14545	-1.14535	-0.121699	3	-0.0464834	39	30.6394	0.000139387
2	0	0	0	1	218.569	-1.13546	-1.13534	-0.102549	3	-0.0465278	39	31.0394	0.000116428
2	0	0	0	1	218.969	-1.12546	-1.12534	-0.0846522	3	-0.0465647	39	31.4394	9.52627e-05
2	0	0	1	1	219.368	-1.11546	-1.11538	-0.0685348	3	-0.0465948	39	31.8392	7.64427e-05
2	0	0	1	1	219.768	-1.10546	-1.10537	-0.054405	3	-0.0466188	39	32.2392	6.01378e-05
2	0	0	1	1	220.168	-1.09546	-1.09538	-0.0424006	3	-0.0466376	39	32.6392	4.64446e-05
2	0	0	0	1	220.568	-1.08546	-1.08537	-0.0325119	3	-0.046652	39	33.039	3.52874e-05
2	0	0	0	1	220.968	-1.07546	-1.07541	-0.0245217	3	-0.0466628	39	33.439	2.63709e-05
2	0	0	0	1	221.368	-1.06547	-1.06538	-0.0179542	3	-0.0466708	39	33.839	1.9128e-05
2	0	0	1	1	221.768	-1.05547	-1.05539	-0.0128898	3	-0.0466764	39	34.2388	1.36038e-05
2	0	0	1	1	222.168	-1.04547	-1.04539	-0.00776813	3	-0.04668	39	34.6388	8.12075e-06
2	0	0	1	1	222.568	-1.03547	-1.03539	-0.000892424	3	-0.0466812	39	0.000000000000000E+000	9.24007e-07
2	1	0	0	1	222.968	-1.02547	-1.02541	0.00989991	3	-0.0466788	39	0.3998	-1.01515e-05
2	1	0	0	1	223.368	-1.01547	-1.0154	0.0153508	3	-0.0466728	39	0.7998	-1.55871e-05
2	1	0	0	1	223.768	-1.00548	-1.00539	0.0127164	3	-0.0466663	39	1.1998	-1.2785e-05
2	1	0	1	1	224.168	-0.995478	-0.995416	0.0100082	3	-0.0466613	39	1.5996	-9.96235e-06
2	1	0	1	1	224.568	-0.98548	-0.985383	0.0119226	3	-0.0466565	39	1.9996	-1.17483e-05
2	1	0	1	1	224.968	-0.975481	-0.975399	0.0154071	3	-0.0466505	39	2.3996	-1.50281e-05
2	1	0	0	1	225.367	-0.965483	-0.965409	0.0208991	3	-0.0466428	39	2.7994	-2.01762e-05
2	1	0	0	1	225.767	-0.955485	-0.955392	0.0291775	3	-0.0466324	39	3.1994	-2.7876e-05
2	1	0	0	1	226.167	-0.945486	-0.945406	0.0417941	3	-0.0466178	39	3.5994	-3.95124e-05
2	1	0	1	1	226.567	-0.935488	-0.935413	0.0579183	3	-0.0465976	39	3.9992	-5.41775e-05
2	1	0	1	1	226.967	-0.92549	-0.925401	0.0759581	3	-0.0465705	39	4.3992	-7.02917e-05
2	1	0	1	1	227.367	-0.915491	-0.915393	0.0949813	3	-0.0465359	39	4.7992	-8.69452e-05
2	1	0	1	1	227.767	-0.905491	-0.905384	0.114448	3	-0.0464936	39	5.1991	-0.000103619
2	1	0	0	1	228.167	-0.895495	-0.895402	0.134374	3	-0.0464433	39	5.599	-0.000120319
2	1	0	0	1	228.567	-0.885496	-0.885417	0.151951	3	-0.0463854	39	5.999	-0.00013454
2	1	0	1	1	228.967	-0.875497	-0.875432	0.16207	3	-0.0463217	39	6.3989	-0.000141881
2	1	0	1	1	229.367	-0.865499	-0.865433	0.156906	3	-0.0462569	39	6.7988	-0.000135792
2	1	0	1	1	229.767	-0.855501	-0.855433	0.141344	3	-0.0461966	39	7.1988	-0.00012091
2	1	0	1	1	230.167	-0.845504	-0.845445	0.123929	3	-0.0461431	39	7.5987	-0.000104775
2	1	0	0	1	230.567	-0.835504	-0.835446	0.106446	3	-0.0460966	39	7.9986	-8.89296e-05
2	1	0	0	1	230.967	-0.825506	-0.825426	0.0911173	3	-0.0460568	39	8.3986	-7.52106e-05
2	1	0	0	1	231.367	-0.815508	-0.815451	0.0780736	3	-0.0460227	39	8.7986	-6.36652e-05
2	1	0	1	1	231.766	-0.805509	-0.805426	0.0678668	3	-0.0459932	39	9.1984	-5.46617e-05
2	1	0	1	1	232.166	-0.795511	-0.795455	0.0595049	3	-0.0459674	39	9.5984	-4.73334e-05
2	1	0	1	1	232.191	-0.794861	-0.794783	0.0595102	3	-0.045966	39	9.6228	-4.72977e-05