File: Fig 2/Fig 2_np-Fe2O3_500 mvs.mpt
mode	ox/red	error	control changes	counter inc.	time/s	control/V	Ewe/V	<I>/mA	cycle number	(Q-Qo)/C	I Range	step time/s	P/W
2	1	1	1	0	0.000000000000000E+000	-0.299954	-0.299008	3.11687	1	0.0000000E+000	39	0.000000000000000E+000	-0.00093197
2	1	0	1	0	0.0155	-0.307703	-0.307698	0.0362248	1	3.1184e-06	39	0.0153	-1.11463e-05
2	1	0	1	0	0.0355	-0.317701	-0.317694	0.00997998	1	3.50264e-06	39	0.0353	-3.17058e-06
2	1	0	1	0	0.0555	-0.327699	-0.327677	0.00202797	1	3.62085e-06	39	0.0553	-6.64518e-07
2	0	0	1	0	0.0755	-0.337698	-0.337685	-0.00120578	1	3.63498e-06	39	0.004	4.07173e-07
2	0	0	1	0	0.0955	-0.347696	-0.347679	-0.00294442	1	3.59374e-06	39	0.024	1.02371e-06
2	0	0	1	0	0.1155	-0.357694	-0.357674	-0.00432093	1	3.51503e-06	39	0.044	1.54548e-06
2	0	0	1	0	0.1355	-0.367693	-0.367666	-0.00680362	1	3.40508e-06	39	0.064	2.50146e-06
2	0	0	1	0	0.1555	-0.377691	-0.377665	-0.00784108	1	3.25871e-06	39	0.084	2.9613e-06
2	0	0	1	0	0.1755	-0.387689	-0.387659	-0.00859308	1	3.09621e-06	39	0.104	3.33118e-06
2	0	0	1	0	0.1955	-0.397688	-0.397668	-0.00882667	1	2.91946e-06	39	0.124	3.51008e-06
2	0	0	1	0	0.2155	-0.407686	-0.407689	-0.00924957	1	2.72941e-06	39	0.144	3.77095e-06
2	0	0	1	0	0.2355	-0.417684	-0.417674	-0.0106556	1	2.52401e-06	39	0.164	4.45057e-06
2	0	0	1	0	0.2555	-0.427682	-0.427696	-0.0117022	1	2.30643e-06	39	0.184	5.005e-06
2	0	0	1	0	0.2755	-0.437681	-0.437689	-0.0118882	1	2.07838e-06	39	0.204	5.20332e-06
2	0	0	1	0	0.2955	-0.447679	-0.447669	-0.0114281	1	1.84004e-06	39	0.224	5.11599e-06
2	0	0	1	0	0.3155	-0.457677	-0.457677	-0.0118999	1	1.59469e-06	39	0.244	5.44633e-06
2	0	0	1	0	0.3355	-0.467676	-0.467678	-0.0133242	1	1.33626e-06	39	0.264	6.23144e-06
2	0	0	1	0	0.3555	-0.477674	-0.477665	-0.0146946	1	1.06549e-06	39	0.284	7.01908e-06
2	0	0	1	0	0.3755	-0.487672	-0.487661	-0.0148211	1	7.82126e-07	39	0.304	7.22766e-06
2	0	0	1	0	0.3955	-0.497671	-0.497638	-0.0145935	1	4.90039e-07	39	0.324	7.26226e-06
2	0	0	1	0	0.4155	-0.507669	-0.507684	-0.0146257	1	1.88812e-07	39	0.344	7.42524e-06
2	0	0	1	0	0.4355	-0.517667	-0.517644	-0.0163225	1	-1.25529e-07	39	0.364	8.44923e-06
2	0	0	1	0	0.4555	-0.527665	-0.527657	-0.017235	1	-4.59686e-07	39	0.384	9.09414e-06
2	0	0	1	0	0.4755	-0.537664	-0.537647	-0.0181362	1	-8.0513e-07	39	0.404	9.75086e-06
2	0	0	1	0	0.4955	-0.547662	-0.547627	-0.0176851	1	-1.1609e-06	39	0.424	9.68481e-06
2	0	0	1	0	0.5155	-0.55766	-0.557643	-0.0182378	1	-1.53373e-06	39	0.444	1.01702e-05
2	0	0	1	0	0.5355	-0.567659	-0.567649	-0.0204174	1	-1.92421e-06	39	0.464	1.15899e-05
2	0	0	1	0	0.5555	-0.577657	-0.577653	-0.0218392	1	-2.34071e-06	39	0.484	1.26155e-05
2	0	0	1	0	0.5755	-0.587655	-0.58765	-0.0227168	1	-2.77768e-06	39	0.504	1.33495e-05
2	0	0	1	0	0.5955	-0.597753	-0.597732	-0.023007	1	-3.24361e-06	39	0.524	1.3752e-05
2	0	0	1	0	0.6155	-0.607752	-0.607744	-0.0243652	1	-3.72742e-06	39	0.544	1.48078e-05
2	0	0	1	0	0.6355	-0.61775	-0.617756	-0.0262968	1	-4.23631e-06	39	0.564	1.6245e-05
2	0	0	1	0	0.6555	-0.627748	-0.627753	-0.028776	1	-4.77163e-06	39	0.584	1.80642e-05
2	0	0	1	0	0.6755	-0.637747	-0.637748	-0.0294433	1	-5.3357e-06	39	0.604	1.87774e-05
2	0	0	1	0	0.6955	-0.647745	-0.647738	-0.0293068	1	-5.92298e-06	39	0.624	1.89831e-05
2	0	0	1	0	0.7155	-0.657743	-0.657724	-0.0306199	1	-6.53699e-06	39	0.644	2.01395e-05
2	0	0	1	0	0.7355	-0.667741	-0.667718	-0.03308	1	-7.18153e-06	39	0.664	2.20882e-05
2	0	0	1	0	0.7555	-0.67774	-0.677713	-0.0352876	1	-7.85929e-06	39	0.684	2.39149e-05
2	0	0	1	0	0.7755	-0.687738	-0.687731	-0.0363849	1	-8.56222e-06	39	0.704	2.50231e-05
2	0	0	1	0	0.7955	-0.697736	-0.697725	-0.0367687	1	-9.29383e-06	39	0.724	2.56545e-05
2	0	0	1	0	0.8155	-0.707735	-0.707718	-0.0381349	1	-1.00544e-05	39	0.744	2.69888e-05
2	0	0	1	0	0.8355	-0.717733	-0.717737	-0.0404725	1	-1.08436e-05	39	0.764	2.90486e-05
2	0	0	1	0	0.8555	-0.727731	-0.727707	-0.043073	1	-1.16634e-05	39	0.784	3.13445e-05
2	0	0	1	0	0.8755	-0.73773	-0.737729	-0.0436973	1	-1.2517e-05	39	0.804	3.22368e-05
2	0	0	1	0	0.8955	-0.747728	-0.747709	-0.0441237	1	-1.33976e-05	39	0.824	3.29917e-05
2	0	0	1	0	0.9155	-0.757726	-0.757704	-0.045363	1	-1.43083e-05	39	0.844	3.43717e-05
2	0	0	1	0	0.9355	-0.767724	-0.767707	-0.0481071	1	-1.52525e-05	39	0.864	3.69321e-05
2	0	0	1	0	0.9555	-0.777723	-0.777697	-0.050813	1	-1.62358e-05	39	0.884	3.95171e-05
2	0	0	1	0	0.9755	-0.787721	-0.787698	-0.0523183	1	-1.72571e-05	39	0.904	4.1211e-05
2	0	0	1	0	0.9955	-0.797719	-0.797657	-0.0527294	1	-1.83094e-05	39	0.924	4.20599e-05
2	0	0	1	0	1.0155	-0.807718	-0.807692	-0.0548613	1	-1.93963e-05	39	0.944	4.43111e-05
2	0	0	1	0	1.0355	-0.817716	-0.817689	-0.0575549	1	-2.0527e-05	39	0.964	4.7062e-05
2	0	0	1	0	1.0555	-0.827714	-0.827656	-0.060494	1	-2.16999e-05	39	0.984	5.00682e-05
2	0	0	1	0	1.0755	-0.837713	-0.83769	-0.0620173	1	-2.29098e-05	39	1.004	5.19513e-05
2	0	0	1	0	1.0955	-0.847711	-0.847642	-0.0628138	1	-2.41553e-05	39	1.024	5.32437e-05
2	0	0	1	0	1.1155	-0.857709	-0.857658	-0.0648398	1	-2.54419e-05	39	1.044	5.56104e-05
2	0	0	1	0	1.1355	-0.867707	-0.867666	-0.0674994	1	-2.67698e-05	39	1.064	5.85669e-05
2	0	0	1	0	1.1555	-0.877706	-0.877685	-0.0709635	1	-2.81442e-05	39	1.084	6.22836e-05
2	0	0	1	0	1.1755	-0.887704	-0.887675	-0.0720005	1	-2.95595e-05	39	1.104	6.3913e-05
2	0	0	1	0	1.1955	-0.897702	-0.897656	-0.0729162	1	-3.10098e-05	39	1.124	6.54536e-05
2	0	0	1	0	1.2155	-0.907701	-0.907641	-0.0747036	1	-3.24959e-05	39	1.144	6.7804e-05
2	0	0	1	0	1.2355	-0.917699	-0.917665	-0.0771709	1	-3.40236e-05	39	1.164	7.08171e-05
2	0	0	1	0	1.2555	-0.927697	-0.927658	-0.0806173	1	-3.55924e-05	39	1.184	7.47853e-05
2	0	0	1	0	1.2755	-0.937695	-0.937663	-0.0821026	1	-3.72026e-05	39	1.204	7.69845e-05
2	0	0	1	0	1.2955	-0.947694	-0.94765	-0.0826989	1	-3.88491e-05	39	1.224	7.83697e-05
2	0	0	1	0	1.3155	-0.957692	-0.957646	-0.0844636	1	-4.05322e-05	39	1.244	8.08863e-05
2	0	0	1	0	1.3355	-0.96769	-0.967652	-0.0879132	1	-4.2264e-05	39	1.264	8.50694e-05
2	0	0	1	0	1.3555	-0.977689	-0.977616	-0.0919359	1	-4.40494e-05	39	1.284	8.9878e-05
2	0	0	1	0	1.3755	-0.987687	-0.987647	-0.0935375	1	-4.58843e-05	39	1.304	9.23821e-05
2	0	0	1	0	1.3955	-0.997685	-0.997637	-0.0943295	1	-4.7763e-05	39	1.324	9.41066e-05
2	0	0	1	0	1.4155	-1.00768	-1.00762	-0.0971068	1	-4.96934e-05	39	1.344	9.78472e-05
2	0	0	1	0	1.4355	-1.01768	-1.01762	-0.101583	1	-5.16869e-05	39	1.364	0.000103374
2	0	0	1	0	1.4555	-1.02768	-1.02763	-0.107244	1	-5.37627e-05	39	1.384	0.000110207
2	0	0	1	0	1.4755	-1.03768	-1.03763	-0.111479	1	-5.59298e-05	39	1.404	0.000115674
2	0	0	1	0	1.4955	-1.04768	-1.04765	-0.117308	1	-5.82151e-05	39	1.424	0.000122897
2	0	0	1	0	1.5155	-1.05767	-1.05762	-0.127263	1	-6.06669e-05	39	1.444	0.000134596
2	0	0	1	0	1.5355	-1.06767	-1.06764	-0.141628	1	-6.33654e-05	39	1.464	0.000151207
2	0	0	1	0	1.5555	-1.07767	-1.07763	-0.159372	1	-6.63696e-05	39	1.484	0.000171745
2	0	0	1	0	1.5755	-1.08767	-1.08763	-0.176246	1	-6.97129e-05	39	1.504	0.000191691
2	0	0	1	0	1.5955	-1.09767	-1.09763	-0.193375	1	-7.34078e-05	39	1.524	0.000212255
2	0	0	1	0	1.6155	-1.10767	-1.10762	-0.212067	1	-7.74765e-05	39	1.544	0.000234891
2	0	0	1	0	1.6355	-1.11766	-1.11762	-0.232097	1	-8.1927e-05	39	1.564	0.000259395
2	0	0	1	0	1.6555	-1.12766	-1.12763	-0.254539	1	-8.67826e-05	39	1.584	0.000287025
2	0	0	1	0	1.6755	-1.13766	-1.13762	-0.274362	1	-9.20463e-05	39	1.604	0.00031212
2	0	0	1	0	1.6955	-1.14766	-1.14763	-0.294579	1	-9.77323e-05	39	1.624	0.000338068
2	0	0	1	0	1.7155	-1.15766	-1.15762	-0.323846	1	-0.000103914	39	1.644	0.00037489
2	0	0	1	0	1.7355	-1.16766	-1.1676	-0.378049	1	-0.000110893	39	1.664	0.000441409
2	0	0	1	0	1.7555	-1.17765	-1.17762	-0.495166	1	-0.000119462	39	1.684	0.000583119
2	0	0	1	0	1.7757	-1.18785	-1.1878	-0.782565	1	-0.000131952	39	1.7042	0.000929532
2	0	0	1	0	1.7957	-1.19785	-1.19778	-1.38815	1	-0.000153126	39	1.7242	0.0016627
2	0	0	1	0	1.8157	-1.20785	-1.20779	-2.32115	1	-0.000189879	39	1.7442	0.00280346
2	0	0	1	0	1.8357	-1.21785	-1.2178	-3.45192	1	-0.000247644	39	1.7642	0.00420373
2	0	0	1	0	1.8557	-1.22785	-1.2278	-4.54923	1	-0.000327935	39	1.7842	0.00558556
2	0	0	1	0	1.8757	-1.23784	-1.23779	-5.47935	1	-0.000428609	39	1.8042	0.00678227
2	0	0	1	0	1.8957	-1.24784	-1.24781	-6.1945	1	-0.000545695	39	1.8242	0.00772958
2	0	0	1	0	1.9157	-1.25784	-1.25782	-6.71276	1	-0.000675114	39	1.8442	0.00844342
2	0	0	1	0	1.9357	-1.26784	-1.26781	-7.07945	1	-0.000813449	39	1.8642	0.00897539
2	0	0	1	0	1.9557	-1.27784	-1.27777	-7.33134	1	-0.00095768	39	1.8842	0.00936778
2	0	0	1	0	1.9757	-1.28784	-1.28778	-7.56605	1	-0.00110651	39	1.9042	0.00974344
2	0	0	1	0	1.9957	-1.29783	-1.29779	-7.87559	1	-0.0012608	39	1.9242	0.0102209
2	0	0	1	0	2.0157	-1.30783	-1.3078	-8.30754	1	-0.00142266	39	1.9442	0.0108646
2	0	0	1	0	2.0357	-1.31783	-1.3178	-8.7672	1	-0.00159346	39	1.9642	0.0115534
2	0	0	1	0	2.0557	-1.32783	-1.32778	-9.3175	1	-0.00177421	39	1.9842	0.0123716
2	0	0	1	0	2.0757	-1.33783	-1.33779	-9.9785	1	-0.001967	39	2.0042	0.0133491
2	0	0	1	0	2.0957	-1.34783	-1.34777	-10.8497	1	-0.00217494	39	2.0242	0.0146229
2	0	0	1	1	2.1097	-1.34533	-1.34532	-10.7146	2	-0.00232781	39	2.0382	0.0144145
2	0	0	1	1	2.1297	-1.33533	-1.33531	-9.57816	2	-0.00253061	39	2.0582	0.0127898
2	0	0	1	1	2.1497	-1.32533	-1.32531	-8.41818	2	-0.00271043	39	2.0782	0.0111567
2	0	0	1	1	2.1697	-1.31533	-1.3153	-7.31684	2	-0.00286758	39	2.0982	0.00962385
2	0	0	1	1	2.1897	-1.30533	-1.30531	-6.28561	2	-0.00300336	39	2.1182	0.00820464
2	0	0	1	1	2.2097	-1.29533	-1.2953	-5.3477	2	-0.00311934	39	2.1382	0.00692688
2	0	0	1	1	2.2297	-1.28534	-1.28531	-4.52185	2	-0.00321773	39	2.1582	0.00581197
2	0	0	1	1	2.2497	-1.27534	-1.27531	-3.7966	2	-0.00330072	39	2.1782	0.00484184
2	0	0	1	1	2.2697	-1.26534	-1.2653	-3.19151	2	-0.00337046	39	2.1982	0.00403823
2	0	0	1	1	2.2897	-1.25534	-1.2553	-2.70953	2	-0.00342917	39	2.2182	0.00340126
2	0	0	1	1	2.3097	-1.24534	-1.24529	-2.31673	2	-0.00347925	39	2.2382	0.002885
2	0	0	1	1	2.3297	-1.23534	-1.23531	-1.99398	2	-0.00352219	39	2.2582	0.00246318
2	0	0	1	1	2.3497	-1.22535	-1.22531	-1.73579	2	-0.00355942	39	2.2782	0.00212688
2	0	0	1	1	2.3697	-1.21535	-1.21532	-1.5226	2	-0.00359194	39	2.2982	0.00185045
2	0	0	1	1	2.3897	-1.20535	-1.2053	-1.342	2	-0.00362049	39	2.3182	0.00161751
2	0	0	1	1	2.4097	-1.19535	-1.1953	-1.17551	2	-0.00364558	39	2.3382	0.00140509
2	0	0	1	1	2.4297	-1.18535	-1.18532	-1.03188	2	-0.0036676	39	2.3582	0.0012231
2	0	0	1	1	2.4499	-1.17515	-1.17511	-0.902155	2	-0.00368713	39	2.3784	0.00106013
2	0	0	1	1	2.4699	-1.16516	-1.16511	-0.794687	2	-0.00370407	39	2.3984	0.000925898
2	0	0	1	1	2.4899	-1.15516	-1.15511	-0.696419	2	-0.00371893	39	2.4184	0.000804442
2	0	0	1	1	2.5099	-1.14516	-1.14511	-0.602659	2	-0.00373187	39	2.4384	0.00069011
2	0	0	1	1	2.5299	-1.13516	-1.13512	-0.512127	2	-0.00374304	39	2.4584	0.000581324
2	0	0	1	1	2.5499	-1.12516	-1.12512	-0.429149	2	-0.00375249	39	2.4784	0.000482843
2	0	0	1	1	2.5699	-1.11517	-1.11512	-0.353591	2	-0.00376031	39	2.4984	0.000394295
2	0	0	1	1	2.5899	-1.10517	-1.10512	-0.280904	2	-0.0037666	39	2.5184	0.000310434
2	0	0	1	1	2.6099	-1.09517	-1.09515	-0.208715	2	-0.00377145	39	2.5384	0.000228575
2	0	0	1	1	2.6299	-1.08517	-1.08514	-0.140268	2	-0.00377493	39	2.5584	0.00015221
2	0	0	1	1	2.6499	-1.07517	-1.07514	-0.0765426	2	-0.00377712	39	2.5784	8.22944e-05
2	0	0	1	1	2.6699	-1.06517	-1.06516	-0.0193398	2	-0.00377809	39	2.5984	2.06001e-05
2	1	0	1	1	2.6899	-1.05518	-1.05515	0.0401048	2	-0.00377784	39	0.012	-4.23165e-05
2	1	0	1	1	2.7099	-1.04518	-1.04517	0.108828	2	-0.00377631	39	0.032	-0.000113744
2	1	0	1	1	2.7299	-1.03518	-1.03517	0.187501	2	-0.00377337	39	0.052	-0.000194095
2	1	0	1	1	2.7499	-1.02518	-1.02514	0.270671	2	-0.00376886	39	0.072	-0.000277474
2	1	0	1	1	2.7699	-1.01518	-1.01515	0.356946	2	-0.0037626	39	0.092	-0.000362355
2	1	0	1	1	2.7899	-1.00518	-1.00513	0.44387	2	-0.00375454	39	0.112	-0.000446147
2	1	0	1	1	2.8099	-0.995186	-0.995149	0.529829	2	-0.00374473	39	0.132	-0.000527259
2	1	0	1	1	2.8299	-0.985187	-0.985169	0.612387	2	-0.00373329	39	0.152	-0.000603304
2	1	0	1	1	2.8499	-0.975189	-0.975154	0.680972	2	-0.00372037	39	0.172	-0.000664052
2	1	0	1	1	2.8699	-0.965191	-0.965154	0.709935	2	-0.00370642	39	0.192	-0.000685197
2	1	0	1	1	2.8899	-0.955193	-0.955148	0.692563	2	-0.0036923	39	0.212	-0.000661501
2	1	0	1	1	2.9099	-0.945194	-0.945169	0.665563	2	-0.00367869	39	0.232	-0.00062907
2	1	0	1	1	2.9299	-0.935196	-0.935192	0.642405	2	-0.00366561	39	0.252	-0.000600772
2	1	0	1	1	2.9499	-0.925198	-0.925185	0.619838	2	-0.00365304	39	0.272	-0.000573465
2	1	0	1	1	2.9699	-0.915199	-0.915172	0.604978	2	-0.00364083	39	0.292	-0.000553659
2	1	0	1	1	2.9899	-0.905201	-0.905151	0.601457	2	-0.00362876	39	0.312	-0.000544409
2	1	0	1	1	3.0099	-0.895203	-0.895155	0.606963	2	-0.00361665	39	0.332	-0.000543325
2	1	0	1	1	3.0299	-0.885204	-0.88519	0.615325	2	-0.00360444	39	0.352	-0.00054468
2	1	0	1	1	3.0499	-0.875206	-0.875182	0.621918	2	-0.00359209	39	0.372	-0.000544292
2	1	0	1	1	3.0699	-0.865208	-0.86517	0.621224	2	-0.00357967	39	0.392	-0.000537465
2	1	0	1	1	3.0899	-0.85521	-0.855177	0.617488	2	-0.00356725	39	0.412	-0.000528061
2	1	0	1	1	3.1099	-0.845211	-0.845182	0.610007	2	-0.00355494	39	0.432	-0.000515567
2	1	0	1	1	3.1299	-0.835213	-0.835204	0.59912	2	-0.00354286	39	0.452	-0.000500387
2	1	0	1	1	3.1499	-0.825215	-0.825197	0.583528	2	-0.00353106	39	0.472	-0.000481525
2	1	0	1	1	3.1699	-0.815216	-0.815201	0.5642	2	-0.0035196	39	0.492	-0.000459937
2	1	0	1	1	3.1899	-0.805218	-0.805199	0.547555	2	-0.00350846	39	0.512	-0.000440891
2	1	0	1	1	3.2099	-0.79522	-0.795213	0.534609	2	-0.00349762	39	0.532	-0.000425128
2	1	0	1	1	3.2299	-0.785221	-0.785213	0.524282	2	-0.00348705	39	0.552	-0.000411673
2	1	0	1	1	3.2499	-0.775223	-0.775187	0.514384	2	-0.00347669	39	0.572	-0.000398744
2	1	0	1	1	3.2699	-0.765225	-0.765221	0.504427	2	-0.00346651	39	0.592	-0.000385998
2	1	0	1	1	3.2899	-0.755227	-0.755223	0.497769	2	-0.00345647	39	0.612	-0.000375927
2	1	0	1	1	3.3099	-0.745228	-0.745216	0.494731	2	-0.00344653	39	0.632	-0.000368682
2	1	0	1	1	3.3299	-0.73523	-0.735217	0.490623	2	-0.00343669	39	0.652	-0.000360714
2	1	0	1	1	3.3499	-0.725232	-0.725243	0.486538	2	-0.00342693	39	0.672	-0.000352858
2	1	0	1	1	3.3699	-0.715233	-0.71523	0.480857	2	-0.00341727	39	0.692	-0.000343923
2	1	0	1	1	3.3899	-0.705235	-0.705206	0.474983	2	-0.00340769	39	0.712	-0.000334961
2	1	0	1	1	3.4099	-0.695237	-0.695205	0.472648	2	-0.0033982	39	0.732	-0.000328587
2	1	0	1	1	3.4299	-0.685239	-0.685218	0.470498	2	-0.00338878	39	0.752	-0.000322394
2	1	0	1	1	3.4499	-0.67524	-0.675213	0.468744	2	-0.0033794	39	0.772	-0.000316502
2	1	0	1	1	3.4699	-0.665242	-0.665228	0.465973	2	-0.00337006	39	0.792	-0.000309979
2	1	0	1	1	3.4899	-0.655244	-0.655236	0.465663	2	-0.00336072	39	0.812	-0.00030512
2	1	0	1	1	3.5099	-0.645245	-0.645209	0.468311	2	-0.00335137	39	0.832	-0.000302159
2	1	0	1	1	3.5299	-0.635247	-0.635253	0.470749	2	-0.00334199	39	0.852	-0.000299045
2	1	0	1	1	3.5499	-0.625249	-0.625249	0.472695	2	-0.00333257	39	0.872	-0.000295552
2	1	0	1	1	3.5699	-0.61525	-0.615269	0.473828	2	-0.00332311	39	0.892	-0.000291532
2	1	0	1	1	3.5899	-0.605252	-0.605232	0.476825	2	-0.00331358	39	0.912	-0.00028859
2	1	0	1	1	3.6099	-0.595254	-0.595227	0.482583	2	-0.00330398	39	0.932	-0.000287247
2	1	0	1	1	3.6299	-0.585156	-0.585142	0.489024	2	-0.00329426	39	0.952	-0.000286149
2	1	0	1	1	3.6499	-0.575157	-0.575155	0.493703	2	-0.00328445	39	0.972	-0.000283956
2	1	0	1	1	3.6699	-0.565159	-0.565149	0.498656	2	-0.00327452	39	0.992	-0.000281814
2	1	0	1	1	3.6899	-0.555161	-0.55513	0.504945	2	-0.00326447	39	1.012	-0.00028031
2	1	0	1	1	3.7099	-0.545162	-0.545127	0.512923	2	-0.00325428	39	1.032	-0.000279608
2	1	0	1	1	3.7299	-0.535164	-0.535142	0.520526	2	-0.00324396	39	1.052	-0.000278556
2	1	0	1	1	3.7499	-0.525166	-0.525156	0.526786	2	-0.0032335	39	1.072	-0.000276645
2	1	0	1	1	3.7699	-0.515167	-0.515128	0.532103	2	-0.00322291	39	1.092	-0.000274101
2	1	0	1	1	3.7899	-0.505169	-0.505151	0.536939	2	-0.0032122	39	1.112	-0.000271235
2	1	0	1	1	3.8099	-0.495171	-0.495119	0.542813	2	-0.0032014	39	1.132	-0.000268757
2	1	0	1	1	3.8299	-0.485173	-0.485155	0.546732	2	-0.00319051	39	1.152	-0.00026525
2	1	0	1	1	3.8499	-0.475174	-0.475157	0.547323	2	-0.00317958	39	1.172	-0.000260064
2	1	0	1	1	3.8699	-0.465176	-0.465168	0.546284	2	-0.00316865	39	1.192	-0.000254114
2	1	0	1	1	3.8899	-0.455178	-0.455161	0.542744	2	-0.00315774	39	1.212	-0.000247036
2	1	0	1	1	3.9099	-0.445179	-0.445155	0.539509	2	-0.00314691	39	1.232	-0.000240165
2	1	0	1	1	3.9299	-0.435181	-0.435169	0.533304	2	-0.00313619	39	1.252	-0.000232077
2	1	0	1	1	3.9499	-0.425183	-0.425178	0.523678	2	-0.00312563	39	1.272	-0.000222656
2	1	0	1	1	3.9699	-0.415185	-0.415159	0.51235	2	-0.00311527	39	1.292	-0.000212707
2	1	0	1	1	3.9899	-0.405186	-0.405174	0.500586	2	-0.00310512	39	1.312	-0.000202824
2	1	0	1	1	4.0099	-0.395188	-0.395189	0.490104	2	-0.00309521	39	1.332	-0.000193684
2	1	0	1	1	4.0299	-0.38519	-0.385161	0.477507	2	-0.00308555	39	1.352	-0.000183917
2	1	0	1	1	4.0499	-0.375191	-0.375176	0.464318	2	-0.00307614	39	1.372	-0.000174201
2	1	0	1	1	4.0699	-0.365193	-0.365179	0.451151	2	-0.00306699	39	1.392	-0.000164751
2	1	0	1	1	4.0899	-0.355195	-0.355186	0.438927	2	-0.00305808	39	1.412	-0.000155901
2	1	0	1	1	4.1099	-0.345196	-0.3452	0.42852	2	-0.0030494	39	1.432	-0.000147925
2	1	0	1	1	4.1299	-0.335198	-0.335196	0.417991	2	-0.00304095	39	1.452	-0.000140109
2	1	0	1	1	4.1499	-0.3252	-0.325189	0.407262	2	-0.00303271	39	1.472	-0.000132437
2	1	0	1	1	4.1699	-0.315202	-0.315187	0.396911	2	-0.00302466	39	1.492	-0.000125101
2	1	0	1	1	4.1899	-0.305203	-0.305186	0.388287	2	-0.00301681	39	1.512	-0.0001185
2	1	0	1	1	4.2037	-0.301604	-0.301583	0.344009	2	-0.00301157	39	1.5258	-0.000103747
2	1	0	1	1	4.2237	-0.311602	-0.311605	0.275999	2	-0.00300541	39	1.5458	-8.60027e-05
2	1	0	1	1	4.2437	-0.321601	-0.32158	0.227242	2	-0.0030004	39	1.5658	-7.30765e-05
2	1	0	1	1	4.2637	-0.331599	-0.331571	0.188776	2	-0.00299627	39	1.5858	-6.25926e-05
2	1	0	1	1	4.2837	-0.341597	-0.341577	0.158711	2	-0.00299281	39	1.6058	-5.42121e-05
2	1	0	1	1	4.3037	-0.351595	-0.351578	0.133976	2	-0.00298989	39	1.6258	-4.71029e-05
2	1	0	1	1	4.3237	-0.361594	-0.361573	0.115429	2	-0.00298739	39	1.6458	-4.17359e-05
2	1	0	1	1	4.3437	-0.371592	-0.371584	0.100411	2	-0.00298524	39	1.6658	-3.73113e-05
2	1	0	1	1	4.3637	-0.38159	-0.381538	0.0872344	2	-0.00298338	39	1.6858	-3.32832e-05
2	1	0	1	1	4.3837	-0.391589	-0.391558	0.0749974	2	-0.00298177	39	1.7058	-2.93658e-05
2	1	0	1	1	4.4037	-0.401587	-0.401571	0.064331	2	-0.00298036	39	1.7258	-2.58334e-05
2	1	0	1	1	4.4237	-0.411585	-0.411578	0.0573967	2	-0.00297914	39	1.7458	-2.36232e-05
2	1	0	1	1	4.4437	-0.421583	-0.421555	0.0510224	2	-0.00297806	39	1.7658	-2.15088e-05
2	1	0	1	1	4.4637	-0.431582	-0.431545	0.0451021	2	-0.00297711	39	1.7858	-1.94636e-05
2	1	0	1	1	4.4837	-0.44158	-0.441549	0.0390186	2	-0.00297627	39	1.8058	-1.72286e-05
2	1	0	1	1	4.5037	-0.451578	-0.451529	0.0333697	2	-0.00297554	39	1.8258	-1.50674e-05
2	1	0	1	1	4.5237	-0.461577	-0.461556	0.0298146	2	-0.0029749	39	1.8458	-1.37611e-05
2	1	0	1	1	4.5437	-0.471575	-0.471535	0.0271626	2	-0.00297434	39	1.8658	-1.28081e-05
2	1	0	1	1	4.5637	-0.481573	-0.481537	0.0231326	2	-0.00297385	39	1.8858	-1.11392e-05
2	1	0	1	1	4.5837	-0.491572	-0.491541	0.0197124	2	-0.00297342	39	1.9058	-9.68946e-06
2	1	0	1	1	4.6037	-0.50157	-0.501532	0.0161739	2	-0.00297306	39	1.9258	-8.11174e-06
2	1	0	1	1	4.6237	-0.511568	-0.511541	0.0142579	2	-0.00297275	39	1.9458	-7.29348e-06
2	1	0	1	1	4.6437	-0.521566	-0.521538	0.0126339	2	-0.00297248	39	1.9658	-6.58906e-06
2	1	0	1	1	4.6637	-0.531565	-0.531551	0.0103108	2	-0.00297226	39	1.9858	-5.48072e-06
2	1	0	1	1	4.6837	-0.541563	-0.541512	0.00794146	2	-0.00297208	39	2.0058	-4.30039e-06
2	1	0	1	1	4.7037	-0.551561	-0.551532	0.00503113	2	-0.00297195	39	2.0258	-2.77483e-06
2	1	0	1	1	4.7237	-0.56156	-0.561557	0.00385989	2	-0.00297185	39	2.0458	-2.16755e-06
2	1	0	1	1	4.7437	-0.571558	-0.571538	0.00318146	2	-0.00297178	39	2.0658	-1.81832e-06
2	1	0	1	1	4.7637	-0.581556	-0.581538	0.00167708	2	-0.00297175	39	2.0858	-9.75284e-07
2	0	0	1	1	4.7837	-0.591554	-0.591539	-0.000846982	2	-0.00297174	39	0.000000000000000E+000	5.01023e-07
2	0	0	1	1	4.8037	-0.601653	-0.601632	-0.00367347	2	-0.00297178	39	0.02	2.21008e-06
2	0	0	1	1	4.8237	-0.611651	-0.611606	-0.00431999	2	-0.00297185	39	0.04	2.64213e-06
2	0	0	1	1	4.8437	-0.621649	-0.621633	-0.0050322	2	-0.00297195	39	0.06	3.12818e-06
2	0	0	1	1	4.8637	-0.631648	-0.63162	-0.00679852	2	-0.00297208	39	0.08	4.29408e-06
2	0	0	1	1	4.8837	-0.641646	-0.641607	-0.00900655	2	-0.00297224	39	0.1	5.77866e-06
2	0	0	1	1	4.9037	-0.651644	-0.651589	-0.0126826	2	-0.00297245	39	0.12	8.26383e-06
2	0	0	1	1	4.9237	-0.661643	-0.661604	-0.0132065	2	-0.00297269	39	0.14	8.73748e-06
2	0	0	1	1	4.9437	-0.671641	-0.671583	-0.0146384	2	-0.00297298	39	0.16	9.83088e-06
2	0	0	1	1	4.9637	-0.681639	-0.681619	-0.0171456	2	-0.00297331	39	0.18	1.16868e-05
2	0	0	1	1	4.9837	-0.691637	-0.691597	-0.0207371	2	-0.00297369	39	0.2	1.43418e-05
2	0	0	1	1	5.0037	-0.701636	-0.701578	-0.0250433	2	-0.00297413	39	0.22	1.75698e-05
2	0	0	1	1	5.0237	-0.711634	-0.711594	-0.0279517	2	-0.00297465	39	0.24	1.98903e-05
2	0	0	1	1	5.0437	-0.721632	-0.721601	-0.0303711	2	-0.00297524	39	0.26	2.19158e-05
2	0	0	1	1	5.0637	-0.731631	-0.731634	-0.0353364	2	-0.00297591	39	0.28	2.58533e-05
2	0	0	1	1	5.0837	-0.741629	-0.741602	-0.0421712	2	-0.0029767	39	0.3	3.12742e-05
2	0	0	1	1	5.1037	-0.751627	-0.751594	-0.0498899	2	-0.0029776	39	0.32	3.74969e-05
2	0	0	1	1	5.1237	-0.761626	-0.761596	-0.0564076	2	-0.00297865	39	0.34	4.29598e-05
2	0	0	1	1	5.1437	-0.771624	-0.771594	-0.0636982	2	-0.00297985	39	0.36	4.91492e-05
2	0	0	1	1	5.1637	-0.781622	-0.781579	-0.0742788	2	-0.00298125	39	0.38	5.80547e-05
2	0	0	1	1	5.1837	-0.79162	-0.791582	-0.0870574	2	-0.00298287	39	0.4	6.89131e-05
2	0	0	1	1	5.2037	-0.801619	-0.801583	-0.103605	2	-0.00298477	39	0.42	8.30482e-05
2	0	0	1	1	5.2237	-0.811617	-0.811588	-0.117847	2	-0.00298696	39	0.44	9.56435e-05
2	0	0	1	1	5.2437	-0.821615	-0.82156	-0.131931	2	-0.00298946	39	0.46	0.00010839
2	0	0	1	1	5.2637	-0.831614	-0.831557	-0.147727	2	-0.00299227	39	0.48	0.000122843
2	0	0	1	1	5.2837	-0.841612	-0.841567	-0.164382	2	-0.00299541	39	0.5	0.000138338
2	0	0	1	1	5.3037	-0.85161	-0.85157	-0.180939	2	-0.00299886	39	0.52	0.000154082
2	0	0	1	1	5.3237	-0.861608	-0.861575	-0.19273	2	-0.00300257	39	0.54	0.000166051
2	0	0	1	1	5.3437	-0.871607	-0.871578	-0.200127	2	-0.0030065	39	0.56	0.000174427
2	0	0	1	1	5.3637	-0.881605	-0.881546	-0.207206	2	-0.0030106	39	0.58	0.000182662
2	0	0	1	1	5.3837	-0.891603	-0.891575	-0.216168	2	-0.00301486	39	0.6	0.00019273
2	0	0	1	1	5.4037	-0.901602	-0.901536	-0.225598	2	-0.00301926	39	0.62	0.000203385
2	0	0	1	1	5.4237	-0.9116	-0.911551	-0.231463	2	-0.00302381	39	0.64	0.00021099
2	0	0	1	1	5.4437	-0.921598	-0.921549	-0.236903	2	-0.00302849	39	0.66	0.000218317
2	0	0	1	1	5.4637	-0.931596	-0.931577	-0.245931	2	-0.00303334	39	0.68	0.000229104
2	0	0	1	1	5.4837	-0.941595	-0.941555	-0.258193	2	-0.00303839	39	0.7	0.000243102
2	0	0	1	1	5.5037	-0.951593	-0.951547	-0.269974	2	-0.00304366	39	0.72	0.000256893
2	0	0	1	1	5.5237	-0.961591	-0.961541	-0.276557	2	-0.00304909	39	0.74	0.000265921
2	0	0	1	1	5.5437	-0.97159	-0.971546	-0.281979	2	-0.00305467	39	0.76	0.000273956
2	0	0	1	1	5.5637	-0.981588	-0.981527	-0.290504	2	-0.00306042	39	0.78	0.000285138
2	0	0	1	1	5.5837	-0.991586	-0.991524	-0.307776	2	-0.00306642	39	0.8	0.000305168
2	0	0	1	1	5.6037	-1.00158	-1.00153	-0.334097	2	-0.0030728	39	0.82	0.00033461
2	0	0	1	1	5.6237	-1.01158	-1.01152	-0.365946	2	-0.00307976	39	0.84	0.000370163
2	0	0	1	1	5.6437	-1.02158	-1.02155	-0.409172	2	-0.00308748	39	0.86	0.000417988
2	0	0	1	1	5.6637	-1.03158	-1.03155	-0.46583	2	-0.00309625	39	0.88	0.000480525
2	0	0	1	1	5.6837	-1.04158	-1.04152	-0.5411	2	-0.00310633	39	0.9	0.000563568
2	0	0	1	1	5.7037	-1.05158	-1.05151	-0.634428	2	-0.00311805	39	0.92	0.000667107
2	0	0	1	1	5.7237	-1.06157	-1.06152	-0.742542	2	-0.00313176	39	0.94	0.00078822
2	0	0	1	1	5.7437	-1.07157	-1.07152	-0.867177	2	-0.00314782	39	0.96	0.000929201
2	0	0	1	1	5.7637	-1.08157	-1.0815	-1.01019	2	-0.00316661	39	0.98	0.00109253
2	0	0	1	1	5.7837	-1.09157	-1.09152	-1.18125	2	-0.00318851	39	1	0.00128936
2	0	0	1	1	5.8037	-1.10157	-1.10149	-1.41805	2	-0.00321436	39	1.02	0.00156196
2	0	0	1	1	5.8237	-1.11157	-1.11149	-1.78894	2	-0.00324613	39	1.04	0.00198839
2	0	0	1	1	5.8437	-1.12156	-1.12148	-2.27952	2	-0.00328683	39	1.06	0.00255644
2	0	0	1	1	5.8637	-1.13156	-1.13152	-2.54608	2	-0.00333585	39	1.08	0.00288095
2	0	0	1	1	5.8837	-1.14156	-1.14153	-2.35394	2	-0.00338557	39	1.1	0.00268709
2	0	0	1	1	5.9037	-1.15156	-1.1515	-1.95469	2	-0.00342858	39	1.12	0.00225082
2	0	0	1	1	5.9237	-1.16156	-1.1615	-1.70931	2	-0.00346474	39	1.14	0.00198536
2	0	0	1	1	5.9437	-1.17156	-1.17149	-1.67416	2	-0.00349827	39	1.16	0.00196126
2	0	0	1	1	5.9639	-1.18175	-1.1817	-1.78691	2	-0.00353307	39	1.1802	0.00211158
2	0	0	1	1	5.9839	-1.19175	-1.19172	-1.97702	2	-0.0035707	39	1.2002	0.00235605
2	0	0	1	1	6.0039	-1.20175	-1.2017	-2.17564	2	-0.00361229	39	1.2202	0.00261447
2	0	0	1	1	6.0239	-1.21175	-1.21169	-2.32385	2	-0.00365737	39	1.2402	0.00281579
2	0	0	1	1	6.0439	-1.22175	-1.2217	-2.42003	2	-0.00370489	39	1.2602	0.00295654
2	0	0	1	1	6.0639	-1.23175	-1.23169	-2.48231	2	-0.00375397	39	1.2802	0.00305745
2	0	0	1	1	6.0839	-1.24174	-1.24169	-2.53817	2	-0.00380417	39	1.3002	0.00315163
2	0	0	1	1	6.1039	-1.25174	-1.25169	-2.60699	2	-0.00385558	39	1.3202	0.00326314
2	0	0	1	1	6.1239	-1.26174	-1.26167	-2.72586	2	-0.00390876	39	1.3402	0.00343913
2	0	0	1	1	6.1439	-1.27174	-1.27169	-2.92789	2	-0.00396519	39	1.3602	0.00372336
2	0	0	1	1	6.1639	-1.28174	-1.28166	-3.21785	2	-0.00402649	39	1.3802	0.00412419
2	0	0	1	1	6.1839	-1.29174	-1.29167	-3.64871	2	-0.00409503	39	1.4002	0.00471294
2	0	0	1	1	6.2039	-1.30173	-1.30166	-4.21314	2	-0.0041735	39	1.4202	0.00548409
2	0	0	1	1	6.2239	-1.31173	-1.31166	-4.88156	2	-0.00426433	39	1.4402	0.00640296
2	0	0	1	1	6.2439	-1.32173	-1.32167	-5.67986	2	-0.00436978	39	1.4602	0.00750688
2	0	0	1	1	6.2639	-1.33173	-1.33164	-6.58044	2	-0.00449221	39	1.4802	0.00876278
2	0	0	1	1	6.2839	-1.34173	-1.34167	-7.56335	2	-0.00463367	39	1.5002	0.0101475
2	0	0	1	1	6.3006	-1.35007	-1.35003	-8.46793	2	-0.00476766	39	1.5169	0.011432
2	0	0	1	0	6.3181	-1.34133	-1.34129	-7.74955	3	-0.00491019	39	1.5344	0.0103944
2	0	0	1	0	6.3381	-1.33133	-1.33128	-6.75203	3	-0.00505514	39	1.5544	0.00898887
2	0	0	1	0	6.3581	-1.32133	-1.32127	-5.7908	3	-0.00518024	39	1.5744	0.00765123
2	0	0	1	0	6.3781	-1.31133	-1.31127	-4.88637	3	-0.00528679	39	1.5944	0.00640735
2	0	0	1	0	6.3981	-1.30133	-1.30127	-4.08391	3	-0.00537629	39	1.6144	0.00531426
2	0	0	1	0	6.4181	-1.29134	-1.29129	-3.38403	3	-0.00545082	39	1.6344	0.00436976
2	0	0	1	0	6.4381	-1.28134	-1.28128	-2.7865	3	-0.00551226	39	1.6544	0.00357028
2	0	0	1	0	6.4581	-1.27134	-1.27129	-2.28141	3	-0.00556266	39	1.6744	0.00290032
2	0	0	1	0	6.4781	-1.26134	-1.26129	-1.87268	3	-0.00560402	39	1.6944	0.00236198
2	0	0	1	0	6.4981	-1.25134	-1.25131	-1.55449	3	-0.00563816	39	1.7144	0.00194516
2	0	0	1	0	6.5181	-1.24134	-1.24133	-1.30761	3	-0.00566666	39	1.7344	0.00162317
2	0	0	1	0	6.5381	-1.23135	-1.23129	-1.11023	3	-0.00569072	39	1.7544	0.00136702
2	0	0	1	0	6.5581	-1.22135	-1.22129	-0.943018	3	-0.00571113	39	1.7744	0.0011517
2	0	0	1	0	6.5781	-1.21135	-1.21128	-0.806961	3	-0.00572861	39	1.7944	0.000977458
2	0	0	1	0	6.5981	-1.20135	-1.2013	-0.692827	3	-0.00574361	39	1.8144	0.000832292
2	0	0	1	0	6.6181	-1.19135	-1.19131	-0.600626	3	-0.0057565	39	1.8344	0.000715534
2	0	0	1	0	6.6381	-1.18135	-1.18128	-0.516011	3	-0.00576762	39	1.8544	0.000609554
2	0	0	1	0	6.6583	-1.17116	-1.1711	-0.436209	3	-0.00577718	39	1.8746	0.000510843
2	0	0	1	0	6.6783	-1.16116	-1.1611	-0.366492	3	-0.00578522	39	1.8946	0.000425535
2	0	0	1	0	6.6983	-1.15116	-1.1511	-0.305777	3	-0.00579196	39	1.9146	0.00035198
2	0	0	1	0	6.7183	-1.14116	-1.14112	-0.25167	3	-0.00579752	39	1.9346	0.000287185
2	0	0	1	0	6.7383	-1.13116	-1.13113	-0.198363	3	-0.00580196	39	1.9546	0.000224373
2	0	0	1	0	6.7583	-1.12116	-1.12113	-0.140511	3	-0.00580531	39	1.9746	0.000157531
2	0	0	1	0	6.7783	-1.11117	-1.11112	-0.0899878	3	-0.00580764	39	1.9946	9.99875e-05
2	0	0	1	0	6.7983	-1.10117	-1.10111	-0.0429462	3	-0.00580899	39	2.0146	4.72885e-05
2	0	0	1	0	6.8183	-1.09117	-1.09111	-0.00186744	3	-0.00580944	39	2.0346	2.03758e-06
2	1	0	1	0	6.8383	-1.08117	-1.08112	0.0390967	3	-0.00580901	39	0.016	-4.22681e-05
2	1	0	1	0	6.8583	-1.07117	-1.07113	0.0869293	3	-0.00580773	39	0.036	-9.31126e-05
2	1	0	1	0	6.8783	-1.06117	-1.06113	0.134544	3	-0.00580555	39	0.056	-0.000142768
2	1	0	1	0	6.8983	-1.05118	-1.05113	0.182154	3	-0.00580244	39	0.076	-0.000191468
2	1	0	1	0	6.9183	-1.04118	-1.04115	0.233878	3	-0.0057983	39	0.096	-0.000243502
2	1	0	1	0	6.9383	-1.03118	-1.03113	0.299116	3	-0.00579293	39	0.116	-0.000308428
2	1	0	1	0	6.9583	-1.02118	-1.02113	0.386656	3	-0.00578604	39	0.136	-0.000394826
2	1	0	1	0	6.9783	-1.01118	-1.01114	0.48415	3	-0.00577735	39	0.156	-0.000489544
2	1	0	1	0	6.9983	-1.00118	-1.00112	0.578055	3	-0.00576678	39	0.176	-0.000578705
2	1	0	1	0	7.0183	-0.991186	-0.991135	0.661796	3	-0.00575441	39	0.196	-0.000655929
2	1	0	1	0	7.0383	-0.981188	-0.981129	0.738039	3	-0.00574033	39	0.216	-0.000724111
2	1	0	1	0	7.0583	-0.97119	-0.971135	0.800469	3	-0.00572482	39	0.236	-0.000777363
2	1	0	1	0	7.0783	-0.961191	-0.961167	0.817937	3	-0.00570857	39	0.256	-0.000786174
2	1	0	1	0	7.0983	-0.951193	-0.951135	0.795235	3	-0.00569246	39	0.276	-0.000756376
2	1	0	1	0	7.1183	-0.941195	-0.941131	0.76511	3	-0.00567687	39	0.296	-0.000720069
2	1	0	1	0	7.1383	-0.931197	-0.931133	0.740213	3	-0.00566179	39	0.316	-0.000689237
2	1	0	1	0	7.1583	-0.921198	-0.921142	0.731455	3	-0.00564707	39	0.336	-0.000673774
2	1	0	1	0	7.1783	-0.9112	-0.911148	0.733651	3	-0.00563245	39	0.356	-0.000668465
2	1	0	1	0	7.1983	-0.901202	-0.901151	0.739243	3	-0.00561776	39	0.376	-0.00066617
2	1	0	1	0	7.2183	-0.891203	-0.891165	0.745151	3	-0.00560293	39	0.396	-0.000664052
2	1	0	1	0	7.2383	-0.881205	-0.88116	0.75276	3	-0.00558791	39	0.416	-0.000663302
2	1	0	1	0	7.2583	-0.871207	-0.871175	0.762869	3	-0.00557272	39	0.436	-0.000664592
2	1	0	1	0	7.2783	-0.861209	-0.861148	0.767214	3	-0.00555743	39	0.456	-0.000660685
2	1	0	1	0	7.2983	-0.85121	-0.851169	0.76136	3	-0.00554216	39	0.476	-0.000648046
2	1	0	1	0	7.3183	-0.841212	-0.841161	0.745334	3	-0.00552709	39	0.496	-0.000626946
2	1	0	1	0	7.3383	-0.831214	-0.831179	0.726818	3	-0.00551232	39	0.516	-0.000604116
2	1	0	1	0	7.3583	-0.821215	-0.821172	0.711175	3	-0.00549792	39	0.536	-0.000583997
2	1	0	1	0	7.3783	-0.811217	-0.811219	0.692679	3	-0.0054839	39	0.556	-0.000561915
2	1	0	1	0	7.3983	-0.801219	-0.80118	0.672799	3	-0.00547027	39	0.576	-0.000539033
2	1	0	1	0	7.4183	-0.79122	-0.791213	0.652045	3	-0.00545703	39	0.596	-0.000515907
2	1	0	1	0	7.4383	-0.781222	-0.781188	0.633464	3	-0.00544415	39	0.616	-0.000494854
2	1	0	1	0	7.4583	-0.771224	-0.7712	0.621445	3	-0.00543158	39	0.636	-0.000479258
2	1	0	1	0	7.4783	-0.761226	-0.7612	0.610148	3	-0.00541928	39	0.656	-0.000464445
2	1	0	1	0	7.4983	-0.751227	-0.751179	0.598873	3	-0.00540721	39	0.676	-0.000449861
2	1	0	1	0	7.5183	-0.741229	-0.741228	0.587963	3	-0.00539535	39	0.696	-0.000435815
2	1	0	1	0	7.5383	-0.731231	-0.731218	0.580172	3	-0.00538364	39	0.716	-0.000424232
2	1	0	1	0	7.5583	-0.721232	-0.721212	0.576561	3	-0.00537207	39	0.736	-0.000415823
2	1	0	1	0	7.5783	-0.711234	-0.711184	0.572868	3	-0.00536059	39	0.756	-0.000407415
2	1	0	1	0	7.5983	-0.701236	-0.701185	0.568852	3	-0.0053492	39	0.776	-0.00039887
2	1	0	1	0	7.6183	-0.691237	-0.69119	0.564513	3	-0.00533786	39	0.796	-0.000390186
2	1	0	1	0	7.6383	-0.681239	-0.681209	0.563265	3	-0.00532656	39	0.816	-0.000383701
2	1	0	1	0	7.6583	-0.671241	-0.671208	0.565081	3	-0.00531527	39	0.836	-0.000379287
2	1	0	1	0	7.6783	-0.661243	-0.661204	0.567206	3	-0.00530396	39	0.856	-0.000375039
2	1	0	1	0	7.6983	-0.651244	-0.651199	0.56832	3	-0.00529263	39	0.876	-0.000370089
2	1	0	1	0	7.7183	-0.641246	-0.641211	0.569068	3	-0.00528125	39	0.896	-0.000364893
2	1	0	1	0	7.7383	-0.631248	-0.631223	0.572677	3	-0.00526982	39	0.916	-0.000361487
2	1	0	1	0	7.7583	-0.62125	-0.621209	0.578746	3	-0.0052583	39	0.936	-0.000359522
2	1	0	1	0	7.7783	-0.611251	-0.611216	0.584391	3	-0.00524668	39	0.956	-0.000357189
2	1	0	1	0	7.7983	-0.601253	-0.601237	0.590572	3	-0.00523493	39	0.976	-0.000355074
2	1	0	1	0	7.8183	-0.591155	-0.591113	0.596694	3	-0.00522306	39	0.996	-0.000352714
2	1	0	1	0	7.8383	-0.581156	-0.581122	0.604456	3	-0.00521103	39	1.016	-0.000351263
2	1	0	1	0	7.8583	-0.571158	-0.571117	0.614007	3	-0.00519884	39	1.036	-0.00035067
2	1	0	1	0	7.8783	-0.56116	-0.561149	0.623223	3	-0.00518647	39	1.056	-0.000349721
2	1	0	1	0	7.8983	-0.551161	-0.551143	0.631453	3	-0.00517394	39	1.076	-0.000348021
2	1	0	1	0	7.9183	-0.541163	-0.54113	0.639029	3	-0.00516123	39	1.096	-0.000345797
2	1	0	1	0	7.9383	-0.531165	-0.531142	0.647533	3	-0.00514834	39	1.116	-0.000343932
2	1	0	1	0	7.9583	-0.521166	-0.521154	0.656549	3	-0.00513529	39	1.136	-0.000342163
2	1	0	1	0	7.9783	-0.511168	-0.511145	0.664511	3	-0.00512208	39	1.156	-0.000339662
2	1	0	1	0	7.9983	-0.50117	-0.501136	0.669788	3	-0.00510874	39	1.176	-0.000335655
2	1	0	1	0	8.0183	-0.491172	-0.491148	0.672259	3	-0.00509531	39	1.196	-0.000330179
2	1	0	1	0	8.0383	-0.481173	-0.48114	0.674786	3	-0.00508182	39	1.216	-0.000324667
2	1	0	1	0	8.0583	-0.471175	-0.471147	0.675711	3	-0.00506831	39	1.236	-0.000318359
2	1	0	1	0	8.0783	-0.461177	-0.461159	0.673197	3	-0.00505483	39	1.256	-0.00031045
2	1	0	1	0	8.0983	-0.451178	-0.451158	0.667672	3	-0.00504143	39	1.276	-0.000301225
2	1	0	1	0	8.1183	-0.44118	-0.441151	0.658692	3	-0.00502816	39	1.296	-0.000290583
2	1	0	1	0	8.1383	-0.431182	-0.431152	0.64839	3	-0.00501507	39	1.316	-0.000279555
2	1	0	1	0	8.1583	-0.421184	-0.421184	0.637545	3	-0.00500221	39	1.336	-0.000268524
2	1	0	1	0	8.1783	-0.411185	-0.411178	0.622875	3	-0.00498962	39	1.356	-0.000256112
2	1	0	1	0	8.1983	-0.401187	-0.40116	0.606942	3	-0.00497733	39	1.376	-0.000243481
2	1	0	1	0	8.2183	-0.391189	-0.391169	0.589047	3	-0.00496536	39	1.396	-0.000230417
2	1	0	1	0	8.2383	-0.38119	-0.381171	0.572982	3	-0.00495373	39	1.416	-0.000218404
2	1	0	1	0	8.2583	-0.371192	-0.371186	0.557438	3	-0.00494243	39	1.436	-0.000206913
2	1	0	1	0	8.2783	-0.361194	-0.361152	0.540853	3	-0.00493146	39	1.456	-0.00019533
2	1	0	1	0	8.2983	-0.351195	-0.351186	0.524273	3	-0.00492082	39	1.476	-0.000184117
2	1	0	1	0	8.3183	-0.341197	-0.341164	0.508393	3	-0.00491048	39	1.496	-0.000173445
2	1	0	1	0	8.3383	-0.331199	-0.331215	0.494806	3	-0.00490044	39	1.516	-0.000163887
2	1	0	1	0	8.3583	-0.321201	-0.321198	0.482374	3	-0.00489068	39	1.536	-0.000154937
2	1	0	1	0	8.3783	-0.311202	-0.311177	0.470331	3	-0.00488116	39	1.556	-0.000146356
2	1	0	1	0	8.3983	-0.301204	-0.301182	0.458202	3	-0.00487188	39	1.576	-0.000138002
2	1	0	1	0	8.4121	-0.305603	-0.305565	0.382818	3	-0.00486615	39	1.5898	-0.000116976
2	1	0	1	0	8.4321	-0.315602	-0.315578	0.314867	3	-0.00485922	39	1.6098	-9.9365e-05
2	1	0	1	0	8.4521	-0.3256	-0.325572	0.262727	3	-0.00485345	39	1.6298	-8.55366e-05
2	1	0	1	0	8.4721	-0.335598	-0.335575	0.223197	3	-0.00484861	39	1.6498	-7.48993e-05
2	1	0	1	0	8.4921	-0.345596	-0.345582	0.190922	3	-0.0048445	39	1.6698	-6.59791e-05
2	1	0	1	0	8.5121	-0.355595	-0.355583	0.1638	3	-0.00484097	39	1.6898	-5.82445e-05
2	1	0	1	0	8.5321	-0.365593	-0.36557	0.140159	3	-0.00483794	39	1.7098	-5.12379e-05
2	1	0	1	0	8.5521	-0.375591	-0.375564	0.120867	3	-0.00483532	39	1.7298	-4.53934e-05
2	1	0	1	0	8.5721	-0.38559	-0.385553	0.106349	3	-0.00483305	39	1.7498	-4.10032e-05
2	1	0	1	0	8.5921	-0.395588	-0.39557	0.0930499	3	-0.00483107	39	1.7698	-3.68077e-05
2	1	0	1	0	8.6121	-0.405586	-0.405541	0.0815246	3	-0.00482934	39	1.7898	-3.30616e-05
2	1	0	1	0	8.6321	-0.415585	-0.41558	0.0699624	3	-0.00482783	39	1.8098	-2.9075e-05
2	1	0	1	0	8.6521	-0.425583	-0.425584	0.0604687	3	-0.00482652	39	1.8298	-2.57345e-05
2	1	0	1	0	8.6721	-0.435581	-0.435566	0.0536407	3	-0.00482537	39	1.8498	-2.33641e-05
2	1	0	1	0	8.6921	-0.445579	-0.44555	0.0473821	3	-0.00482437	39	1.8698	-2.11111e-05
2	1	0	1	0	8.7121	-0.455578	-0.455556	0.0411825	3	-0.00482349	39	1.8898	-1.87609e-05
2	1	0	1	0	8.7321	-0.465576	-0.465541	0.0343799	3	-0.00482274	39	1.9098	-1.60053e-05
2	1	0	1	0	8.7521	-0.475574	-0.475553	0.0294899	3	-0.00482208	39	1.9298	-1.4024e-05
2	1	0	1	0	8.7721	-0.485573	-0.485544	0.0259739	3	-0.00482153	39	1.9498	-1.26115e-05
2	1	0	1	0	8.7921	-0.495571	-0.495526	0.022188	3	-0.00482105	39	1.9698	-1.09947e-05
2	1	0	1	0	8.8121	-0.505569	-0.505535	0.018574	3	-0.00482066	39	1.9898	-9.38984e-06
2	1	0	1	0	8.8321	-0.515567	-0.515533	0.0143217	3	-0.00482033	39	2.0098	-7.38333e-06
2	1	0	1	0	8.8521	-0.525566	-0.525555	0.0109777	3	-0.00482007	39	2.0298	-5.76939e-06
2	1	0	1	0	8.8721	-0.535564	-0.535532	0.0092627	3	-0.00481986	39	2.0498	-4.96047e-06
2	1	0	1	0	8.8921	-0.545562	-0.545522	0.00703078	3	-0.00481971	39	2.0698	-3.83545e-06
2	1	0	1	0	8.9121	-0.555561	-0.555541	0.00538739	3	-0.0048196	39	2.0898	-2.99292e-06
2	1	0	1	0	8.9321	-0.565559	-0.565537	0.00142013	3	-0.00481954	39	2.1098	-8.03138e-07
2	1	0	1	0	8.9521	-0.575557	-0.575535	-0.00124215	3	-0.00481952	39	0.002	7.14899e-07
2	0	0	1	0	8.9721	-0.585555	-0.585532	-0.00229137	3	-0.00481955	39	0.022	1.34167e-06
2	0	0	1	0	8.9921	-0.595654	-0.595618	-0.00390689	3	-0.00481962	39	0.042	2.32701e-06
2	0	0	1	0	9.0121	-0.605652	-0.605656	-0.00545055	3	-0.00481973	39	0.062	3.30116e-06
2	0	0	1	0	9.0321	-0.61565	-0.61563	-0.00881943	3	-0.00481987	39	0.082	5.42951e-06
2	0	0	1	0	9.0521	-0.625649	-0.625636	-0.0109752	3	-0.00482005	39	0.102	6.86646e-06
2	0	0	1	0	9.0721	-0.635647	-0.635613	-0.0116073	3	-0.00482027	39	0.122	7.37777e-06
2	0	0	1	0	9.0921	-0.645645	-0.64561	-0.0129546	3	-0.00482052	39	0.142	8.36362e-06
2	0	0	1	0	9.1121	-0.655644	-0.655596	-0.0151979	3	-0.00482082	39	0.162	9.96367e-06
2	0	0	1	0	9.1321	-0.665642	-0.66561	-0.0187657	3	-0.00482116	39	0.182	1.24906e-05
2	0	0	1	0	9.1521	-0.67564	-0.6756	-0.021552	3	-0.00482155	39	0.202	1.45605e-05
2	0	0	1	0	9.1721	-0.685638	-0.685608	-0.0231333	3	-0.00482199	39	0.222	1.58604e-05
2	0	0	1	0	9.1921	-0.695637	-0.695569	-0.0245972	3	-0.00482248	39	0.242	1.7109e-05
2	0	0	1	0	9.2121	-0.705635	-0.705589	-0.0290928	3	-0.00482304	39	0.262	2.05276e-05
2	0	0	1	0	9.2321	-0.715633	-0.715591	-0.0348181	3	-0.00482367	39	0.282	2.49155e-05
2	0	0	1	0	9.2521	-0.725632	-0.725598	-0.040113	3	-0.0048244	39	0.302	2.91059e-05
2	0	0	1	0	9.2721	-0.73563	-0.735608	-0.0443236	3	-0.00482523	39	0.322	3.26048e-05
2	0	0	1	0	9.2921	-0.745628	-0.74562	-0.0502384	3	-0.00482619	39	0.342	3.74587e-05
2	0	0	1	0	9.3121	-0.755626	-0.755588	-0.0585473	3	-0.0048273	39	0.362	4.42376e-05
2	0	0	1	0	9.3321	-0.765625	-0.765607	-0.070615	3	-0.00482859	39	0.382	5.40634e-05
2	0	0	1	0	9.3521	-0.775623	-0.775597	-0.0836773	3	-0.00483011	39	0.402	6.48999e-05
2	0	0	1	0	9.3721	-0.785621	-0.785589	-0.0964223	3	-0.00483189	39	0.422	7.57483e-05
2	0	0	1	0	9.3921	-0.79562	-0.795604	-0.111685	3	-0.00483398	39	0.442	8.8857e-05
2	0	0	1	0	9.4121	-0.805618	-0.805576	-0.129683	3	-0.00483641	39	0.462	0.00010447
2	0	0	1	0	9.4321	-0.815616	-0.815568	-0.151172	3	-0.00483923	39	0.482	0.000123291
2	0	0	1	0	9.4521	-0.825615	-0.825592	-0.174198	3	-0.00484247	39	0.502	0.000143816
2	0	0	1	0	9.4721	-0.835613	-0.835602	-0.19252	3	-0.00484611	39	0.522	0.00016087
2	0	0	1	0	9.4921	-0.845611	-0.845573	-0.208669	3	-0.00485014	39	0.542	0.000176445
2	0	0	1	0	9.5121	-0.855609	-0.855551	-0.224233	3	-0.00485451	39	0.562	0.000191843
2	0	0	1	0	9.5321	-0.865608	-0.865568	-0.240198	3	-0.00485918	39	0.582	0.000207908
2	0	0	1	0	9.5521	-0.875606	-0.875578	-0.253755	3	-0.0048641	39	0.602	0.000222182
2	0	0	1	0	9.5721	-0.885604	-0.885568	-0.259995	3	-0.00486922	39	0.622	0.000230243
2	0	0	1	0	9.5921	-0.895603	-0.895558	-0.264451	3	-0.00487447	39	0.642	0.000236831
2	0	0	1	0	9.6121	-0.905601	-0.905547	-0.269398	3	-0.00487984	39	0.662	0.000243952
2	0	0	1	0	9.6321	-0.915599	-0.915545	-0.277113	3	-0.00488533	39	0.682	0.000253709
2	0	0	1	0	9.6521	-0.925598	-0.925541	-0.283652	3	-0.00489091	39	0.702	0.000262532
2	0	0	1	0	9.6721	-0.935596	-0.935562	-0.285583	3	-0.00489657	39	0.722	0.000267181
2	0	0	1	0	9.6921	-0.945594	-0.945565	-0.289614	3	-0.00490232	39	0.742	0.000273849
2	0	0	1	0	9.7121	-0.955592	-0.955526	-0.297213	3	-0.00490822	39	0.762	0.000283995
2	0	0	1	0	9.7321	-0.965591	-0.965542	-0.311319	3	-0.00491432	39	0.782	0.000300592
2	0	0	1	0	9.7521	-0.975589	-0.975555	-0.328408	3	-0.00492069	39	0.802	0.00032038
2	0	0	1	0	9.7721	-0.985587	-0.985549	-0.346845	3	-0.0049274	39	0.822	0.000341833
2	0	0	1	0	9.7921	-0.995586	-0.995529	-0.371478	3	-0.00493458	39	0.842	0.000369817
2	0	0	1	0	9.8121	-1.00558	-1.00551	-0.404882	3	-0.00494236	39	0.862	0.000407114
2	0	0	1	0	9.8321	-1.01558	-1.01552	-0.453923	3	-0.00495096	39	0.882	0.000460966
2	0	0	1	0	9.8521	-1.02558	-1.02552	-0.514742	3	-0.00496061	39	0.902	0.00052788
2	0	0	1	0	9.8721	-1.03558	-1.03555	-0.584049	3	-0.00497155	39	0.922	0.000604809
2	0	0	1	0	9.8921	-1.04558	-1.04551	-0.666858	3	-0.00498404	39	0.942	0.000697209
2	0	0	1	0	9.9121	-1.05558	-1.05554	-0.766431	3	-0.00499839	39	0.962	0.000808999
2	0	0	1	0	9.9321	-1.06557	-1.06552	-0.888458	3	-0.00501495	39	0.982	0.000946668
2	0	0	1	0	9.9521	-1.07557	-1.07553	-1.02534	3	-0.00503406	39	1.002	0.00110278
2	0	0	1	0	9.9721	-1.08557	-1.08551	-1.16816	3	-0.00505596	39	1.022	0.00126805
2	0	0	1	0	9.9921	-1.09557	-1.09551	-1.32925	3	-0.00508089	39	1.042	0.0014562
2	0	0	1	0	10.0121	-1.10557	-1.10551	-1.55758	3	-0.00510964	39	1.062	0.00172192
2	0	0	1	0	10.0321	-1.11557	-1.11551	-1.94686	3	-0.00514443	39	1.082	0.00217174
2	0	0	1	0	10.0521	-1.12556	-1.12551	-2.53391	3	-0.00518904	39	1.102	0.00285194
2	0	0	1	0	10.0721	-1.13556	-1.1355	-3.0617	3	-0.00524543	39	1.122	0.00347656
2	0	0	1	0	10.0921	-1.14556	-1.14553	-3.15325	3	-0.00530851	39	1.142	0.00361213
2	0	0	1	0	10.1121	-1.15556	-1.15551	-2.73225	3	-0.00536801	39	1.162	0.00315714
2	0	0	1	0	10.1321	-1.16556	-1.16551	-2.19037	3	-0.00541699	39	1.182	0.0025529
2	0	0	1	0	10.1521	-1.17555	-1.1755	-1.86212	3	-0.00545706	39	1.202	0.00218892
2	0	0	1	0	10.1723	-1.18575	-1.18572	-1.70029	3	-0.0054928	39	1.2222	0.00201607
2	0	0	1	0	10.1923	-1.19575	-1.19569	-1.61695	3	-0.00552588	39	1.2422	0.00193337
2	0	0	1	0	10.2123	-1.20575	-1.20569	-1.57354	3	-0.00555777	39	1.2622	0.0018972
2	0	0	1	0	10.2323	-1.21575	-1.21568	-1.57204	3	-0.00558918	39	1.2822	0.00191111
2	0	0	1	0	10.2523	-1.22575	-1.22567	-1.59503	3	-0.00562079	39	1.3022	0.00195497
2	0	0	1	0	10.2723	-1.23574	-1.23571	-1.65206	3	-0.00565319	39	1.3222	0.00204147
2	0	0	1	0	10.2923	-1.24574	-1.2457	-1.7437	3	-0.00568714	39	1.3422	0.00217212
2	0	0	1	0	10.3123	-1.25574	-1.25569	-1.88326	3	-0.00572339	39	1.3622	0.0023648
2	0	0	1	0	10.3323	-1.26574	-1.2657	-2.09006	3	-0.00576305	39	1.3822	0.00264539
2	0	0	1	0	10.3523	-1.27574	-1.2757	-2.37159	3	-0.00580751	39	1.4022	0.00302543
2	0	0	1	0	10.3723	-1.28574	-1.28568	-2.74995	3	-0.00585855	39	1.4222	0.00353556
2	0	0	1	0	10.3923	-1.29573	-1.29565	-3.22532	3	-0.00591822	39	1.4422	0.00417888
2	0	0	1	0	10.4123	-1.30573	-1.30567	-3.76596	3	-0.00598812	39	1.4622	0.0049171
2	0	0	1	0	10.4323	-1.31573	-1.31567	-4.39619	3	-0.0060697	39	1.4822	0.00578395
2	0	0	1	0	10.4523	-1.32573	-1.32567	-5.15953	3	-0.00616513	39	1.5022	0.00683986
2	0	0	1	0	10.4723	-1.33573	-1.33568	-6.03226	3	-0.00627683	39	1.5222	0.00805715
2	0	0	1	0	10.4923	-1.34573	-1.34569	-6.99439	3	-0.00640699	39	1.5422	0.00941225
2	0	0	1	1	10.5065	-1.34733	-1.34729	-7.26601	3	-0.00651024	39	1.5564	0.00978945
2	0	0	1	1	10.5265	-1.33733	-1.33728	-6.38065	3	-0.00664666	39	1.5764	0.00853269
2	0	0	1	1	10.5465	-1.32733	-1.32728	-5.47748	3	-0.0067652	39	1.5964	0.00727016
2	0	0	1	1	10.5665	-1.31733	-1.31729	-4.64443	3	-0.00686616	39	1.6164	0.00611806
2	0	0	1	1	10.5865	-1.30733	-1.30729	-3.88978	3	-0.00695129	39	1.6364	0.00508508
2	0	0	1	1	10.6065	-1.29733	-1.29729	-3.22005	3	-0.0070221	39	1.6564	0.00417732
2	0	0	1	1	10.6265	-1.28734	-1.28729	-2.65819	3	-0.00708067	39	1.6764	0.00342186
2	0	0	1	1	10.6465	-1.27734	-1.27729	-2.18492	3	-0.00712895	39	1.6964	0.00279077
2	0	0	1	1	10.6665	-1.26734	-1.26729	-1.79253	3	-0.00716852	39	1.7164	0.00227165
2	0	0	1	1	10.6865	-1.25734	-1.25728	-1.47899	3	-0.00720105	39	1.7364	0.00185951
2	0	0	1	1	10.7065	-1.24734	-1.2473	-1.23161	3	-0.007228	39	1.7564	0.00153619
2	0	0	1	1	10.7265	-1.23734	-1.23731	-1.02718	3	-0.00725052	39	1.7764	0.00127093
2	0	0	1	1	10.7465	-1.22735	-1.22729	-0.869025	3	-0.00726944	39	1.7964	0.00106655
2	0	0	1	1	10.7665	-1.21735	-1.2173	-0.742356	3	-0.0072855	39	1.8164	0.000903668
2	0	0	1	1	10.7865	-1.20735	-1.20729	-0.634548	3	-0.00729919	39	1.8364	0.000766085
2	0	0	1	1	10.8065	-1.19735	-1.19731	-0.539799	3	-0.00731089	39	1.8564	0.000646307
2	0	0	1	1	10.8265	-1.18735	-1.18731	-0.460302	3	-0.00732089	39	1.8764	0.000546524
2	0	0	1	1	10.8467	-1.17715	-1.17711	-0.387991	3	-0.00732946	39	1.8966	0.000456707
2	0	0	1	1	10.8667	-1.16716	-1.16713	-0.330863	3	-0.00733662	39	1.9166	0.00038616
2	0	0	1	1	10.8867	-1.15716	-1.15711	-0.273916	3	-0.0073426	39	1.9366	0.000316951
2	0	0	1	1	10.9067	-1.14716	-1.14712	-0.21928	3	-0.00734752	39	1.9566	0.000251539
2	0	0	1	1	10.9267	-1.13716	-1.13709	-0.167257	3	-0.00735143	39	1.9766	0.000190186
2	0	0	1	1	10.9467	-1.12716	-1.12711	-0.122704	3	-0.00735435	39	1.9966	0.000138301
2	0	0	1	1	10.9667	-1.11716	-1.11711	-0.0813981	3	-0.00735636	39	2.0166	9.09304e-05
2	0	0	1	1	10.9867	-1.10717	-1.10712	-0.0371337	3	-0.00735749	39	2.0366	4.11113e-05
2	1	0	1	1	11.0067	-1.09717	-1.09711	0.0080731	3	-0.00735777	39	0.000000000000000E+000	-8.8571e-06
2	1	0	1	1	11.0267	-1.08717	-1.08712	0.0490146	3	-0.00735721	39	0.02	-5.32848e-05
2	1	0	1	1	11.0467	-1.07717	-1.07712	0.0858897	3	-0.00735589	39	0.04	-9.25139e-05
2	1	0	1	1	11.0667	-1.06717	-1.06712	0.120658	3	-0.0073538	39	0.06	-0.000128757
2	1	0	1	1	11.0867	-1.05717	-1.05713	0.162364	3	-0.00735092	39	0.08	-0.000171641
2	1	0	1	1	11.1067	-1.04718	-1.04713	0.213893	3	-0.00734714	39	0.1	-0.000223974
2	1	0	1	1	11.1267	-1.03718	-1.03713	0.273155	3	-0.00734232	39	0.12	-0.000283296
2	1	0	1	1	11.1467	-1.02718	-1.02712	0.339844	3	-0.00733626	39	0.14	-0.000349062
2	1	0	1	1	11.1667	-1.01718	-1.01714	0.415185	3	-0.0073287	39	0.16	-0.000422301
2	1	0	1	1	11.1867	-1.00718	-1.00714	0.500744	3	-0.00731947	39	0.18	-0.000504317
2	1	0	1	1	11.2067	-0.997185	-0.997138	0.592031	3	-0.0073085	39	0.2	-0.000590337
2	1	0	1	1	11.2267	-0.987187	-0.987143	0.678648	3	-0.00729581	39	0.22	-0.000669923
2	1	0	1	1	11.2467	-0.977189	-0.977141	0.750647	3	-0.00728154	39	0.24	-0.000733488
2	1	0	1	1	11.2667	-0.96719	-0.967153	0.7836	3	-0.00726613	39	0.26	-0.000757861
2	1	0	1	1	11.2867	-0.957192	-0.957172	0.779917	3	-0.00725039	39	0.28	-0.000746515
2	1	0	1	1	11.3067	-0.947194	-0.947136	0.76543	3	-0.00723489	39	0.3	-0.000724967
2	1	0	1	1	11.3267	-0.937196	-0.937159	0.748296	3	-0.00721978	39	0.32	-0.000701273
2	1	0	1	1	11.3467	-0.927197	-0.927159	0.734099	3	-0.00720502	39	0.34	-0.000680626
2	1	0	1	1	11.3667	-0.917199	-0.917176	0.727311	3	-0.00719041	39	0.36	-0.000667072
2	1	0	1	1	11.3867	-0.907201	-0.907148	0.73468	3	-0.00717576	39	0.38	-0.000666463
2	1	0	1	1	11.4067	-0.897202	-0.897181	0.749134	3	-0.00716091	39	0.4	-0.000672109
2	1	0	1	1	11.4267	-0.887204	-0.887175	0.763923	3	-0.0071458	39	0.42	-0.000677734
2	1	0	1	1	11.4467	-0.877206	-0.877166	0.775597	3	-0.00713043	39	0.44	-0.000680327
2	1	0	1	1	11.4667	-0.867207	-0.867174	0.779561	3	-0.00711486	39	0.46	-0.000676014
2	1	0	1	1	11.4867	-0.857209	-0.857168	0.78129	3	-0.00709919	39	0.48	-0.000669697
2	1	0	1	1	11.5067	-0.847211	-0.847181	0.779382	3	-0.00708356	39	0.5	-0.000660277
2	1	0	1	1	11.5267	-0.837213	-0.837163	0.768276	3	-0.0070681	39	0.52	-0.000643173
2	1	0	1	1	11.5467	-0.827214	-0.827154	0.75092	3	-0.00705293	39	0.54	-0.000621126
2	1	0	1	1	11.5667	-0.817216	-0.817172	0.729102	3	-0.00703812	39	0.56	-0.000595802
2	1	0	1	1	11.5867	-0.807218	-0.807159	0.710113	3	-0.00702369	39	0.58	-0.000573174
2	1	0	1	1	11.6067	-0.797219	-0.79717	0.693911	3	-0.00700964	39	0.6	-0.000553165
2	1	0	1	1	11.6267	-0.787221	-0.787182	0.676755	3	-0.00699596	39	0.62	-0.00053273
2	1	0	1	1	11.6467	-0.777223	-0.777162	0.658701	3	-0.00698264	39	0.64	-0.000511917
2	1	0	1	1	11.6667	-0.767225	-0.767201	0.64082	3	-0.00696964	39	0.66	-0.000491638
2	1	0	1	1	11.6867	-0.757226	-0.757227	0.628135	3	-0.00695692	39	0.68	-0.000475641
2	1	0	1	1	11.7067	-0.747228	-0.747199	0.620069	3	-0.00694444	39	0.7	-0.000463315
2	1	0	1	1	11.7267	-0.73723	-0.737209	0.611169	3	-0.00693215	39	0.72	-0.000450559
2	1	0	1	1	11.7467	-0.727231	-0.727204	0.602412	3	-0.00692003	39	0.74	-0.000438076
2	1	0	1	1	11.7667	-0.717233	-0.717217	0.594974	3	-0.00690804	39	0.76	-0.000426725
2	1	0	1	1	11.7867	-0.707235	-0.707197	0.591497	3	-0.00689616	39	0.78	-0.000418305
2	1	0	1	1	11.8067	-0.697236	-0.69721	0.590115	3	-0.00688435	39	0.8	-0.000411434
2	1	0	1	1	11.8267	-0.687238	-0.687198	0.589178	3	-0.00687257	39	0.82	-0.000404882
2	1	0	1	1	11.8467	-0.67724	-0.677212	0.587276	3	-0.00686082	39	0.84	-0.000397711
2	1	0	1	1	11.8667	-0.667242	-0.667197	0.586634	3	-0.00684907	39	0.86	-0.0003914
2	1	0	1	1	11.8867	-0.657243	-0.657222	0.588457	3	-0.0068373	39	0.88	-0.000386747
2	1	0	1	1	11.9067	-0.647245	-0.64722	0.592656	3	-0.00682549	39	0.9	-0.000383579
2	1	0	1	1	11.9267	-0.637247	-0.637232	0.596399	3	-0.00681361	39	0.92	-0.000380044
2	1	0	1	1	11.9467	-0.627248	-0.627235	0.599528	3	-0.00680166	39	0.94	-0.000376045
2	1	0	1	1	11.9667	-0.61725	-0.617201	0.604136	3	-0.00678962	39	0.96	-0.000372874
2	1	0	1	1	11.9867	-0.607252	-0.607222	0.611151	3	-0.00677745	39	0.98	-0.000371104
2	1	0	1	1	12.0067	-0.597253	-0.597191	0.619634	3	-0.00676514	39	1	-0.00037004
2	1	0	1	1	12.0267	-0.587155	-0.587116	0.628521	3	-0.00675267	39	1.02	-0.000369015
2	1	0	1	1	12.0467	-0.577157	-0.577121	0.636589	3	-0.00674003	39	1.04	-0.000367389
2	1	0	1	1	12.0667	-0.567159	-0.567111	0.644744	3	-0.0067272	39	1.06	-0.000365641
2	1	0	1	1	12.0867	-0.55716	-0.557127	0.656012	3	-0.00671418	39	1.08	-0.000365482
2	1	0	1	1	12.1067	-0.547162	-0.547111	0.666863	3	-0.00670095	39	1.1	-0.000364848
2	1	0	1	1	12.119	-0.541013	-0.541009	0.66826	3	-0.00669271	39	1.1123	-0.000361535