File: Fig 2/Fig 2_np-Fe3O4_500mvs.mpt
mode	ox/red	error	control changes	counter inc.	time/s	control/V	Ewe/V	<I>/mA	cycle number	(Q-Qo)/C	I Range	step time/s	P/W
2	1	1	0	0	0.000000000000000E+000	-0.299969	-0.299578	7.61869	1	0.0000000E+000	38	0.000000000000000E+000	-0.0022824
2	1	0	1	0	0.0197	-0.309821	-0.309621	0.110472	1	1.03724e-05	38	0.0195	-3.42046e-05
2	1	0	1	0	0.0437	-0.321822	-0.321606	0.0312318	1	1.18528e-05	38	0.0435	-1.00444e-05
2	1	0	1	0	0.0677	-0.333823	-0.333596	0.00718997	1	1.22673e-05	38	0.0675	-2.39855e-06
2	0	0	1	0	0.0917	-0.345825	-0.345604	-0.00659376	1	1.22611e-05	38	0.01	2.27883e-06
2	0	0	1	0	0.1157	-0.357826	-0.357607	-0.0137723	1	1.20188e-05	38	0.034	4.92508e-06
2	0	0	1	0	0.1397	-0.369827	-0.36959	-0.0185085	1	1.1638e-05	38	0.058	6.84055e-06
2	0	0	1	0	0.1637	-0.381829	-0.381622	-0.0220766	1	1.11571e-05	38	0.082	8.42491e-06
2	0	0	1	0	0.1877	-0.39383	-0.39361	-0.0258145	1	1.06054e-05	38	0.106	1.01609e-05
2	0	0	1	0	0.2117	-0.405831	-0.405597	-0.0269826	1	9.98476e-06	38	0.13	1.09441e-05
2	0	0	1	0	0.2357	-0.417833	-0.417608	-0.0294888	1	9.31603e-06	38	0.154	1.23147e-05
2	0	0	1	0	0.2597	-0.429834	-0.429619	-0.0294038	1	8.60547e-06	38	0.178	1.26324e-05
2	0	0	1	0	0.2837	-0.441836	-0.441631	-0.0316551	1	7.86199e-06	38	0.202	1.39799e-05
2	0	0	1	0	0.3077	-0.453837	-0.453604	-0.0319312	1	7.09937e-06	38	0.226	1.44841e-05
2	0	0	1	0	0.3317	-0.465838	-0.465617	-0.0342037	1	6.3047e-06	38	0.25	1.59258e-05
2	0	0	1	0	0.3557	-0.47784	-0.477614	-0.0351382	1	5.46202e-06	38	0.274	1.67825e-05
2	0	0	1	0	0.3797	-0.489841	-0.489606	-0.0349895	1	4.61438e-06	38	0.298	1.71311e-05
2	0	0	1	0	0.4037	-0.501842	-0.50163	-0.0357753	1	3.73255e-06	38	0.322	1.7946e-05
2	0	0	1	0	0.4277	-0.513844	-0.513619	-0.0369647	1	2.83321e-06	38	0.346	1.89858e-05
2	0	0	1	0	0.4517	-0.525845	-0.525616	-0.0398319	1	1.9028e-06	38	0.37	2.09363e-05
2	0	0	1	0	0.4757	-0.537847	-0.537619	-0.0394708	1	9.48033e-07	38	0.394	2.12203e-05
2	0	0	1	0	0.4997	-0.549848	-0.549619	-0.0411274	1	-3.1927e-08	38	0.418	2.26044e-05
2	0	0	1	0	0.5237	-0.561849	-0.561623	-0.0422318	1	-1.02492e-06	38	0.442	2.37183e-05
2	0	0	1	0	0.5477	-0.573851	-0.573618	-0.0428902	1	-2.05091e-06	38	0.466	2.46026e-05
2	0	0	1	0	0.5717	-0.585852	-0.585618	-0.0451839	1	-3.10989e-06	38	0.49	2.64605e-05
2	0	0	1	0	0.5957	-0.597853	-0.597628	-0.0458211	1	-4.18206e-06	38	0.514	2.7384e-05
2	0	0	1	0	0.6197	-0.609855	-0.609627	-0.0466919	1	-5.27866e-06	38	0.538	2.84646e-05
2	0	0	1	0	0.6437	-0.621856	-0.62164	-0.0477963	1	-6.40373e-06	38	0.562	2.97121e-05
2	0	0	1	0	0.6677	-0.633857	-0.633645	-0.0477963	1	-7.55144e-06	38	0.586	3.02859e-05
2	0	0	1	0	0.6917	-0.645859	-0.645629	-0.0482423	1	-8.72071e-06	38	0.61	3.11466e-05
2	0	0	1	0	0.7157	-0.65786	-0.657638	-0.0507059	1	-9.90837e-06	38	0.634	3.33461e-05
2	0	0	1	0	0.7397	-0.669862	-0.669639	-0.0527236	1	-1.11387e-05	38	0.658	3.53058e-05
2	0	0	1	0	0.7637	-0.681863	-0.681643	-0.0534669	1	-1.23901e-05	38	0.682	3.64454e-05
2	0	0	1	0	0.7877	-0.693864	-0.693626	-0.0543589	1	-1.36754e-05	38	0.706	3.77048e-05
2	0	0	1	0	0.8117	-0.705866	-0.705657	-0.0554209	1	-1.49937e-05	38	0.73	3.91081e-05
2	0	0	1	0	0.8357	-0.717867	-0.717639	-0.0580332	1	-1.63584e-05	38	0.754	4.16469e-05
2	0	0	1	0	0.8597	-0.729869	-0.729647	-0.0600084	1	-1.77691e-05	38	0.778	4.37849e-05
2	0	0	1	0	0.8837	-0.74187	-0.74164	-0.0616649	1	-1.92266e-05	38	0.802	4.57332e-05
2	0	0	1	0	0.9077	-0.753871	-0.753625	-0.0638313	1	-2.07329e-05	38	0.826	4.81048e-05
2	0	0	1	0	0.9317	-0.765873	-0.765637	-0.0669958	1	-2.22993e-05	38	0.85	5.12944e-05
2	0	0	1	0	0.9557	-0.777874	-0.777646	-0.0700329	1	-2.3937e-05	38	0.874	5.44608e-05
2	0	0	1	0	0.9797	-0.789875	-0.78965	-0.073962	1	-2.56385e-05	38	0.898	5.84041e-05
2	0	0	1	0	1.0037	-0.801877	-0.801639	-0.0782521	1	-2.74263e-05	38	0.922	6.27299e-05
2	0	0	1	0	1.0277	-0.813878	-0.813675	-0.0795265	1	-2.9304e-05	38	0.946	6.47086e-05
2	0	0	1	0	1.0517	-0.82588	-0.825647	-0.0836255	1	-3.12831e-05	38	0.97	6.90451e-05
2	0	0	1	0	1.0757	-0.837881	-0.83766	-0.0888289	1	-3.3365e-05	38	0.994	7.44084e-05
2	0	0	1	0	1.0997	-0.849882	-0.849651	-0.09365	1	-3.55733e-05	38	1.018	7.95698e-05
2	0	0	1	0	1.1237	-0.861884	-0.86166	-0.100659	1	-3.79224e-05	38	1.042	8.67336e-05
2	0	0	1	0	1.1477	-0.873885	-0.87367	-0.107264	1	-4.04084e-05	38	1.066	9.37132e-05
2	0	0	1	0	1.1717	-0.885886	-0.885693	-0.113104	1	-4.30457e-05	38	1.09	0.000100176
2	0	0	1	0	1.1957	-0.897888	-0.897681	-0.119858	1	-4.58534e-05	38	1.114	0.000107594
2	0	0	1	0	1.2197	-0.909889	-0.909667	-0.129479	1	-4.88262e-05	38	1.138	0.000117783
2	0	0	1	0	1.2437	-0.92189	-0.92166	-0.133748	1	-5.19804e-05	38	1.162	0.00012327
2	0	0	1	0	1.2677	-0.933892	-0.933678	-0.144495	1	-5.5324e-05	38	1.186	0.000134912
2	0	0	1	0	1.2917	-0.945893	-0.945691	-0.151503	1	-5.88687e-05	38	1.21	0.000143275
2	0	0	1	0	1.3157	-0.957895	-0.957677	-0.161931	1	-6.26293e-05	38	1.234	0.000155078
2	0	0	1	0	1.3397	-0.969896	-0.969682	-0.171064	1	-6.66152e-05	38	1.258	0.000165878
2	0	0	1	0	1.3637	-0.981897	-0.981673	-0.183319	1	-7.08703e-05	38	1.282	0.000179959
2	0	0	1	0	1.3877	-0.993899	-0.993693	-0.195	1	-7.53974e-05	38	1.306	0.00019377
2	0	0	1	0	1.4117	-1.0059	-1.00567	-0.206893	1	-8.0227e-05	38	1.33	0.000208066
2	0	0	1	0	1.4357	-1.0179	-1.0177	-0.223778	1	-8.53977e-05	38	1.354	0.000227738
2	0	0	1	0	1.4597	-1.0299	-1.02969	-0.238814	1	-9.0945e-05	38	1.378	0.000245906
2	0	0	1	0	1.4837	-1.0419	-1.0417	-0.255402	1	-9.68601e-05	38	1.402	0.000266051
2	0	0	1	0	1.5077	-1.05391	-1.0537	-0.269334	1	-0.000103162	38	1.426	0.000283797
2	0	0	1	0	1.5317	-1.06591	-1.06569	-0.287089	1	-0.000109864	38	1.45	0.000305948
2	0	0	1	0	1.5557	-1.07791	-1.0777	-0.301786	1	-0.000116961	38	1.474	0.000325234
2	0	0	1	0	1.5797	-1.08991	-1.0897	-0.318713	1	-0.000124414	38	1.498	0.000347302
2	0	0	1	0	1.6037	-1.10191	-1.10168	-0.333007	1	-0.000132246	38	1.522	0.000366868
2	0	0	1	0	1.6277	-1.11391	-1.11368	-0.351782	1	-0.000140484	38	1.546	0.000391771
2	0	0	1	0	1.6517	-1.12591	-1.12569	-0.372829	1	-0.000149198	38	1.57	0.000419688
2	0	0	1	0	1.6757	-1.13792	-1.13767	-0.406343	1	-0.000158541	38	1.594	0.000462286
2	0	0	1	0	1.6997	-1.14992	-1.14969	-0.467361	1	-0.00016895	38	1.618	0.000537322
2	0	0	1	0	1.7237	-1.16192	-1.16168	-0.591202	1	-0.000181491	38	1.642	0.000686785
2	0	0	1	0	1.7477	-1.17392	-1.1737	-0.882444	1	-0.000198677	38	1.666	0.00103572
2	0	0	1	0	1.7721	-1.18602	-1.18579	-1.66499	1	-0.000228281	38	1.6904	0.00197433
2	0	0	1	0	1.7961	-1.19802	-1.1978	-3.16362	1	-0.000285264	38	1.7144	0.00378938
2	0	0	1	0	1.8201	-1.21002	-1.2098	-4.86025	1	-0.000381889	38	1.7384	0.00587991
2	0	0	1	0	1.8441	-1.22202	-1.2218	-6.39882	1	-0.000517526	38	1.7624	0.00781809
2	0	0	1	0	1.8681	-1.23403	-1.2338	-7.7772	1	-0.000688138	38	1.7864	0.0095955
2	0	0	1	0	1.8921	-1.24603	-1.24582	-8.93437	1	-0.000889313	38	1.8104	0.0111307
2	0	0	1	0	1.9161	-1.25803	-1.25781	-9.77021	1	-0.0011146	38	1.8344	0.012289
2	0	0	1	0	1.9401	-1.27003	-1.26982	-10.2261	1	-0.0013554	38	1.8584	0.0129853
2	0	0	1	0	1.9641	-1.28203	-1.28184	-10.3122	1	-0.00160247	38	1.8824	0.0132186
2	0	0	1	0	1.9881	-1.29403	-1.29379	-10.1531	1	-0.00184829	38	1.9064	0.013136
2	0	0	1	0	2.0121	-1.30603	-1.30582	-9.98034	1	-0.00208958	38	1.9304	0.0130325
2	0	0	1	0	2.0361	-1.31804	-1.3178	-10.6654	1	-0.00233368	38	1.9544	0.0140549
2	0	0	1	0	2.0601	-1.33004	-1.32982	-12.3637	1	-0.0026119	38	1.9784	0.0164415
2	0	0	1	0	2.0841	-1.34204	-1.34181	-13.0891	1	-0.00291823	38	2.0024	0.0175631
2	0	0	1	1	2.1015	-1.34924	-1.34902	-13.6038	2	-0.0031512	38	2.0198	0.0183518
2	0	0	1	1	2.1255	-1.33724	-1.33703	-11.9471	2	-0.00345972	38	2.0438	0.0159737
2	0	0	1	1	2.1495	-1.32524	-1.32502	-10.1119	2	-0.00372356	38	2.0678	0.0133985
2	0	0	1	1	2.1735	-1.31324	-1.31302	-8.44822	2	-0.00394588	38	2.0918	0.0110927
2	0	0	1	1	2.1975	-1.30123	-1.30103	-6.90925	2	-0.00412982	38	2.1158	0.00898914
2	0	0	1	1	2.2215	-1.28923	-1.28902	-5.56148	2	-0.00427894	38	2.1398	0.00716884
2	0	0	1	1	2.2455	-1.27723	-1.27701	-4.35635	2	-0.00439746	38	2.1638	0.00556309
2	0	0	1	1	2.2695	-1.26523	-1.26501	-3.36502	2	-0.00448966	38	2.1878	0.00425678
2	0	0	1	1	2.2935	-1.25323	-1.25301	-2.57402	2	-0.00456044	38	2.2118	0.00322529
2	0	0	1	1	2.3175	-1.24123	-1.24101	-1.96471	2	-0.00461449	38	2.2358	0.00243822
2	0	0	1	1	2.3415	-1.22923	-1.229	-1.50811	2	-0.00465587	38	2.2598	0.00185347
2	0	0	1	1	2.3655	-1.21722	-1.21701	-1.16736	2	-0.00468773	38	2.2838	0.00142068
2	0	0	1	1	2.3895	-1.20522	-1.20503	-0.909778	2	-0.00471251	38	2.3078	0.00109631
2	0	0	1	1	2.4135	-1.19322	-1.19302	-0.709394	2	-0.00473179	38	2.3318	0.000846322
2	0	0	1	1	2.4375	-1.18122	-1.18103	-0.55395	2	-0.00474684	38	2.3558	0.00065423
2	0	0	1	1	2.4619	-1.16912	-1.16892	-0.421465	2	-0.00475867	38	2.3802	0.00049266
2	0	0	1	1	2.4859	-1.15712	-1.15689	-0.315358	2	-0.00476745	38	2.4042	0.000364835
2	0	0	1	1	2.5099	-1.14512	-1.14491	-0.219573	2	-0.00477385	38	2.4282	0.00025139
2	0	0	1	1	2.5339	-1.13311	-1.13292	-0.143305	2	-0.00477816	38	2.4522	0.000162353
2	0	0	1	1	2.5579	-1.12111	-1.12091	-0.0696294	2	-0.00478071	38	2.4762	7.80484e-05
2	0	0	1	1	2.5819	-1.10911	-1.10892	-0.0109052	2	-0.00478167	38	2.5002	1.20929e-05
2	1	0	1	1	2.6059	-1.09711	-1.09692	0.0424882	2	-0.00478128	38	0.016	-4.66063e-05
2	1	0	1	1	2.6299	-1.08511	-1.08491	0.0908056	2	-0.00477964	38	0.04	-9.85163e-05
2	1	0	1	1	2.6539	-1.07311	-1.07292	0.137764	2	-0.00477687	38	0.064	-0.000147809
2	1	0	1	1	2.6779	-1.06111	-1.06091	0.190095	2	-0.00477293	38	0.088	-0.000201673
2	1	0	1	1	2.7019	-1.0491	-1.0489	0.243573	2	-0.00476776	38	0.112	-0.000255485
2	1	0	1	1	2.7259	-1.0371	-1.03689	0.313448	2	-0.00476112	38	0.136	-0.000325012
2	1	0	1	1	2.7499	-1.0251	-1.0249	0.395258	2	-0.00475262	38	0.16	-0.000405102
2	1	0	1	1	2.7739	-1.0131	-1.0129	0.490682	2	-0.00474199	38	0.184	-0.00049701
2	1	0	1	1	2.7979	-1.0011	-1.00089	0.584492	2	-0.00472906	38	0.208	-0.00058501
2	1	0	1	1	2.8219	-0.989098	-0.988893	0.663202	2	-0.00471401	38	0.232	-0.000655836
2	1	0	1	1	2.8459	-0.977097	-0.9769	0.701219	2	-0.00469749	38	0.256	-0.00068502
2	1	0	1	1	2.8699	-0.965095	-0.96491	0.685842	2	-0.0046808	38	0.28	-0.000661775
2	1	0	1	1	2.8939	-0.953094	-0.952899	0.661354	2	-0.00466463	38	0.304	-0.000630203
2	1	0	1	1	2.9179	-0.941093	-0.940899	0.643089	2	-0.00464903	38	0.328	-0.000605082
2	1	0	1	1	2.9419	-0.929091	-0.928888	0.644979	2	-0.00463359	38	0.352	-0.000599113
2	1	0	1	1	2.9659	-0.91709	-0.916896	0.6546	2	-0.004618	38	0.376	-0.0006002
2	1	0	1	1	2.9899	-0.905089	-0.904893	0.668894	2	-0.00460212	38	0.4	-0.000605277
2	1	0	1	1	3.0139	-0.893087	-0.8929	0.686606	2	-0.00458584	38	0.424	-0.000613071
2	1	0	1	1	3.0379	-0.881086	-0.880893	0.701388	2	-0.00456916	38	0.448	-0.000617848
2	1	0	1	1	3.0619	-0.869084	-0.868888	0.71702	2	-0.00455211	38	0.472	-0.00062301
2	1	0	1	1	3.0859	-0.857083	-0.856897	0.722266	2	-0.00453482	38	0.496	-0.000618907
2	1	0	1	1	3.1099	-0.845082	-0.844877	0.722924	2	-0.00451746	38	0.52	-0.000610782
2	1	0	1	1	3.1339	-0.83308	-0.832873	0.714832	2	-0.00450023	38	0.544	-0.000595364
2	1	0	1	1	3.1579	-0.821079	-0.820865	0.701856	2	-0.00448324	38	0.568	-0.000576129
2	1	0	1	1	3.1819	-0.809078	-0.808871	0.687456	2	-0.00446657	38	0.592	-0.000556063
2	1	0	1	1	3.2059	-0.797076	-0.796869	0.67123	2	-0.00445026	38	0.616	-0.000534882
2	1	0	1	1	3.2299	-0.785075	-0.784849	0.658232	2	-0.00443431	38	0.64	-0.000516613
2	1	0	1	1	3.2539	-0.773073	-0.772849	0.64413	2	-0.0044187	38	0.664	-0.000497815
2	1	0	1	1	3.2779	-0.761072	-0.760859	0.631833	2	-0.0044034	38	0.688	-0.000480735
2	1	0	1	1	3.3019	-0.749071	-0.748861	0.619153	2	-0.0043884	38	0.712	-0.00046366
2	1	0	1	1	3.3259	-0.737069	-0.736859	0.608683	2	-0.00437366	38	0.736	-0.000448513
2	1	0	1	1	3.3499	-0.725068	-0.724845	0.600336	2	-0.00435914	38	0.76	-0.000435151
2	1	0	1	1	3.3739	-0.713067	-0.712864	0.592372	2	-0.00434483	38	0.784	-0.000422281
2	1	0	1	1	3.3979	-0.701065	-0.700855	0.584322	2	-0.00433071	38	0.808	-0.000409525
2	1	0	1	1	3.4219	-0.689064	-0.688853	0.577738	2	-0.00431676	38	0.832	-0.000397977
2	1	0	1	1	3.4459	-0.677062	-0.676857	0.573108	2	-0.00430294	38	0.856	-0.000387912
2	1	0	1	1	3.4699	-0.665061	-0.664854	0.569158	2	-0.00428925	38	0.88	-0.000378407
2	1	0	1	1	3.4939	-0.65306	-0.652839	0.564825	2	-0.00427566	38	0.904	-0.00036874
2	1	0	1	1	3.5179	-0.641058	-0.640838	0.56387	2	-0.00426213	38	0.928	-0.000361349
2	1	0	1	1	3.5419	-0.629057	-0.628838	0.563721	2	-0.00424861	38	0.952	-0.000354489
2	1	0	1	1	3.5659	-0.617056	-0.616849	0.565802	2	-0.00423508	38	0.976	-0.000349015
2	1	0	1	1	3.5899	-0.605054	-0.604832	0.56816	2	-0.00422148	38	1	-0.000343641
2	1	0	1	1	3.6139	-0.593053	-0.592839	0.572535	2	-0.0042078	38	1.024	-0.000339421
2	1	0	1	1	3.6379	-0.581052	-0.580837	0.578546	2	-0.00419399	38	1.048	-0.00033604
2	1	0	1	1	3.6619	-0.56905	-0.568838	0.585384	2	-0.00418	38	1.072	-0.000332989
2	1	0	1	1	3.6859	-0.557049	-0.556823	0.593242	2	-0.00416584	38	1.096	-0.000330331
2	1	0	1	1	3.7099	-0.545047	-0.54484	0.601483	2	-0.00415151	38	1.12	-0.000327712
2	1	0	1	1	3.7339	-0.533046	-0.532828	0.606325	2	-0.004137	38	1.144	-0.000323067
2	1	0	1	1	3.7579	-0.521045	-0.520819	0.612166	2	-0.00412234	38	1.168	-0.000318828
2	1	0	1	1	3.7819	-0.509043	-0.508822	0.61756	2	-0.00410757	38	1.192	-0.000314229
2	1	0	1	1	3.8059	-0.497042	-0.496832	0.6179	2	-0.00409276	38	1.216	-0.000306993
2	1	0	1	1	3.8299	-0.485041	-0.484831	0.615415	2	-0.00407797	38	1.24	-0.000298372
2	1	0	1	1	3.8539	-0.473039	-0.4728	0.609638	2	-0.00406326	38	1.264	-0.000288237
2	1	0	1	1	3.8779	-0.461038	-0.460833	0.603713	2	-0.00404871	38	1.288	-0.000278211
2	1	0	1	1	3.9019	-0.449036	-0.448814	0.593858	2	-0.00403437	38	1.312	-0.000266532
2	1	0	1	1	3.9259	-0.437035	-0.436816	0.582475	2	-0.00402028	38	1.336	-0.000254434
2	1	0	1	1	3.9499	-0.425034	-0.424823	0.569732	2	-0.00400645	38	1.36	-0.000242035
2	1	0	1	1	3.9739	-0.413032	-0.412824	0.555396	2	-0.00399292	38	1.384	-0.00022928
2	1	0	1	1	3.9979	-0.401031	-0.400808	0.538235	2	-0.00397977	38	1.408	-0.000215729
2	1	0	1	1	4.0219	-0.38903	-0.38883	0.518547	2	-0.00396708	38	1.432	-0.000201627
2	1	0	1	1	4.0459	-0.377028	-0.376843	0.499624	2	-0.00395488	38	1.456	-0.00018828
2	1	0	1	1	4.0699	-0.365027	-0.364802	0.480828	2	-0.0039431	38	1.48	-0.000175407
2	1	0	1	1	4.0939	-0.353025	-0.352821	0.46492	2	-0.00393175	38	1.504	-0.000164033
2	1	0	1	1	4.1179	-0.341024	-0.340781	0.452219	2	-0.00392075	38	1.528	-0.000154108
2	1	0	1	1	4.1419	-0.329023	-0.328825	0.438648	2	-0.00391005	38	1.552	-0.000144238
2	1	0	1	1	4.1659	-0.317021	-0.316801	0.428326	2	-0.00389964	38	1.576	-0.000135694
2	1	0	1	1	4.1899	-0.30502	-0.304828	0.418514	2	-0.00388949	38	1.6	-0.000127575
2	1	0	1	1	4.2077	-0.30362	-0.303399	0.354268	2	-0.00388242	38	1.6178	-0.000107485
2	1	0	1	1	4.2317	-0.315621	-0.315387	0.280401	2	-0.00387486	38	1.6418	-8.84346e-05
2	1	0	1	1	4.2557	-0.327623	-0.327417	0.224692	2	-0.00386881	38	1.6658	-7.35681e-05
2	1	0	1	1	4.2797	-0.339624	-0.339409	0.186612	2	-0.00386388	38	1.6898	-6.33378e-05
2	1	0	1	1	4.3037	-0.351625	-0.351419	0.151271	2	-0.00385981	38	1.7138	-5.31597e-05
2	1	0	1	1	4.3277	-0.363627	-0.363412	0.125785	2	-0.00385647	38	1.7378	-4.57119e-05
2	1	0	1	1	4.3517	-0.375628	-0.375428	0.103209	2	-0.00385372	38	1.7618	-3.87475e-05
2	1	0	1	1	4.3757	-0.387629	-0.387423	0.0862393	2	-0.00385146	38	1.7858	-3.34111e-05
2	1	0	1	1	4.3997	-0.399631	-0.399422	0.0705016	2	-0.00384958	38	1.8098	-2.81599e-05
2	1	0	1	1	4.4237	-0.411632	-0.411413	0.0566967	2	-0.00384806	38	1.8338	-2.33257e-05
2	1	0	1	1	4.4477	-0.423634	-0.423422	0.0440174	2	-0.00384684	38	1.8578	-1.86379e-05
2	1	0	1	1	4.4717	-0.435635	-0.43543	0.0352671	2	-0.00384588	38	1.8818	-1.53564e-05
2	1	0	1	1	4.4957	-0.447636	-0.447403	0.0271753	2	-0.00384513	38	1.9058	-1.21583e-05
2	1	0	1	1	4.5197	-0.459638	-0.459416	0.0190835	2	-0.00384458	38	1.9298	-8.76725e-06
2	1	0	1	1	4.5437	-0.471639	-0.471431	0.0143261	2	-0.00384418	38	1.9538	-6.75376e-06
2	1	0	1	1	4.5677	-0.48364	-0.483432	0.0081457	2	-0.00384391	38	1.9778	-3.93789e-06
2	1	0	1	1	4.5917	-0.495642	-0.495421	0.00447145	2	-0.00384377	38	2.0018	-2.21525e-06
2	1	0	1	1	4.6157	-0.507643	-0.507438	0.000181295	2	-0.00384375	38	0.002	-9.19959e-08
2	0	0	1	1	4.6397	-0.519644	-0.519426	-0.00599908	2	-0.00384382	38	0.026	3.11608e-06
2	0	0	1	1	4.6637	-0.531646	-0.531439	-0.00880255	2	-0.00384398	38	0.05	4.67802e-06
2	0	0	1	1	4.6877	-0.543647	-0.543418	-0.0114786	2	-0.00384423	38	0.074	6.23768e-06
2	0	0	1	1	4.7117	-0.555649	-0.555418	-0.0140272	2	-0.00384455	38	0.098	7.79096e-06
2	0	0	1	1	4.7357	-0.56765	-0.567431	-0.0175315	2	-0.00384494	38	0.122	9.94794e-06
2	0	0	1	1	4.7597	-0.579651	-0.579438	-0.0196979	2	-0.00384539	38	0.146	1.14137e-05
2	0	0	1	1	4.7837	-0.591653	-0.591416	-0.023096	2	-0.00384589	38	0.17	1.36593e-05
2	0	0	1	1	4.8077	-0.603654	-0.603444	-0.0246252	2	-0.00384646	38	0.194	1.48599e-05
2	0	0	1	1	4.8317	-0.615656	-0.615436	-0.0259419	2	-0.00384708	38	0.218	1.59656e-05
2	0	0	1	1	4.8557	-0.627657	-0.627428	-0.0288941	2	-0.00384776	38	0.242	1.8129e-05
2	0	0	1	1	4.8797	-0.639658	-0.639444	-0.0308905	2	-0.0038485	38	0.266	1.97527e-05
2	0	0	1	1	4.9037	-0.65166	-0.65144	-0.0359877	2	-0.0038493	38	0.29	2.34439e-05
2	0	0	1	1	4.9277	-0.663661	-0.663439	-0.0364337	2	-0.00385016	38	0.314	2.41716e-05
2	0	0	1	1	4.9517	-0.675662	-0.675454	-0.0399593	2	-0.00385108	38	0.338	2.69907e-05
2	0	0	1	1	4.9757	-0.687664	-0.687436	-0.0425291	2	-0.00385209	38	0.362	2.92361e-05
2	0	0	1	1	4.9997	-0.699665	-0.699449	-0.0477113	2	-0.00385316	38	0.386	3.33716e-05
2	0	0	1	1	5.0237	-0.711666	-0.711443	-0.0500475	2	-0.00385433	38	0.41	3.5606e-05
2	0	0	1	1	5.0477	-0.723668	-0.723463	-0.0545076	2	-0.00385559	38	0.434	3.94343e-05
2	0	0	1	1	5.0717	-0.735669	-0.735442	-0.0603694	2	-0.00385696	38	0.458	4.43982e-05
2	0	0	1	1	5.0957	-0.747671	-0.747443	-0.0660188	2	-0.00385845	38	0.482	4.93453e-05
2	0	0	1	1	5.1197	-0.759672	-0.759443	-0.0724541	2	-0.00386009	38	0.506	5.50247e-05
2	0	0	1	1	5.1437	-0.771673	-0.771431	-0.0800999	2	-0.00386193	38	0.53	6.17916e-05
2	0	0	1	1	5.1677	-0.783675	-0.783434	-0.0916536	2	-0.00386397	38	0.554	7.18045e-05
2	0	0	1	1	5.1917	-0.795676	-0.795442	-0.10308	2	-0.0038663	38	0.578	8.1994e-05
2	0	0	1	1	5.2157	-0.807677	-0.807456	-0.118839	2	-0.00386896	38	0.602	9.59571e-05
2	0	0	1	1	5.2397	-0.819679	-0.819443	-0.137359	2	-0.00387204	38	0.626	0.000112558
2	0	0	1	1	5.2637	-0.83168	-0.831456	-0.157854	2	-0.00387559	38	0.65	0.000131248
2	0	0	1	1	5.2877	-0.843682	-0.843451	-0.181683	2	-0.00387968	38	0.674	0.000153241
2	0	0	1	1	5.3117	-0.855683	-0.855476	-0.204727	2	-0.00388434	38	0.698	0.000175139
2	0	0	1	1	5.3357	-0.867684	-0.867475	-0.227048	2	-0.00388954	38	0.722	0.000196959
2	0	0	1	1	5.3597	-0.879686	-0.879461	-0.245037	2	-0.00389523	38	0.746	0.000215501
2	0	0	1	1	5.3837	-0.891687	-0.891477	-0.25846	2	-0.0039013	38	0.77	0.000230411
2	0	0	1	1	5.4077	-0.903688	-0.903473	-0.26566	2	-0.0039076	38	0.794	0.000240017
2	0	0	1	1	5.4317	-0.91569	-0.915467	-0.27184	2	-0.00391405	38	0.818	0.000248861
2	0	0	1	1	5.4557	-0.927691	-0.927471	-0.273709	2	-0.00392058	38	0.842	0.000253857
2	0	0	1	1	5.4797	-0.939692	-0.939497	-0.274261	2	-0.00392713	38	0.866	0.000257668
2	0	0	1	1	5.5037	-0.951694	-0.951477	-0.274346	2	-0.00393368	38	0.89	0.000261034
2	0	0	1	1	5.5277	-0.963695	-0.963485	-0.277766	2	-0.0039403	38	0.914	0.000267623
2	0	0	1	1	5.5517	-0.975697	-0.975463	-0.286962	2	-0.00394706	38	0.938	0.000279921
2	0	0	1	1	5.5757	-0.987698	-0.987493	-0.299259	2	-0.00395407	38	0.962	0.000295516
2	0	0	1	1	5.5997	-0.999699	-0.999472	-0.31865	2	-0.00396148	38	0.986	0.000318482
2	0	0	1	1	5.6237	-1.0117	-1.01148	-0.350847	2	-0.00396953	38	1.01	0.000354876
2	0	0	1	1	5.6477	-1.0237	-1.02348	-0.392156	2	-0.00397843	38	1.034	0.000401363
2	0	0	1	1	5.6717	-1.0357	-1.03547	-0.449436	2	-0.00398851	38	1.058	0.000465379
2	0	0	1	1	5.6957	-1.0477	-1.0475	-0.516379	2	-0.00400008	38	1.082	0.000540907
2	0	0	1	1	5.7197	-1.05971	-1.05948	-0.603244	2	-0.00401349	38	1.106	0.000639126
2	0	0	1	1	5.7437	-1.07171	-1.0715	-0.700325	2	-0.00402915	38	1.13	0.000750396
2	0	0	1	1	5.7677	-1.08371	-1.0835	-0.817688	2	-0.00404735	38	1.154	0.000885963
2	0	0	1	1	5.7917	-1.09571	-1.09552	-0.965635	2	-0.00406866	38	1.178	0.00105787
2	0	0	1	1	5.8157	-1.10771	-1.10749	-1.20648	2	-0.00409446	38	1.202	0.00133616
2	0	0	1	1	5.8397	-1.11971	-1.11949	-1.62084	2	-0.00412811	38	1.226	0.00181452
2	0	0	1	1	5.8637	-1.13171	-1.1315	-2.00876	2	-0.0041722	38	1.25	0.00227291
2	0	0	1	1	5.8877	-1.14372	-1.14351	-2.01059	2	-0.00422128	38	1.274	0.00229912
2	0	0	1	1	5.9117	-1.15572	-1.15549	-1.78272	2	-0.00426682	38	1.298	0.00205992
2	0	0	1	1	5.9357	-1.16772	-1.16749	-1.60555	2	-0.00430732	38	1.322	0.00187447
2	0	0	1	1	5.9601	-1.17982	-1.17959	-1.50545	2	-0.00434507	38	1.3464	0.00177581
2	0	0	1	1	5.9841	-1.19182	-1.19159	-1.48288	2	-0.0043808	38	1.3704	0.00176699
2	0	0	1	1	6.0081	-1.20382	-1.20359	-1.51938	2	-0.00441672	38	1.3944	0.00182871
2	0	0	1	1	6.0321	-1.21582	-1.2156	-1.59145	2	-0.00445399	38	1.4184	0.00193457
2	0	0	1	1	6.0561	-1.22783	-1.2276	-1.65809	2	-0.00449297	38	1.4424	0.00203547
2	0	0	1	1	6.0801	-1.23983	-1.23959	-1.72981	2	-0.00453359	38	1.4664	0.00214426
2	0	0	1	1	6.1041	-1.25183	-1.25158	-1.84291	2	-0.00457634	38	1.4904	0.00230656
2	0	0	1	1	6.1281	-1.26383	-1.2636	-2.07836	2	-0.00462304	38	1.5144	0.00262621
2	0	0	1	1	6.1521	-1.27583	-1.27559	-2.53713	2	-0.00467806	38	1.5384	0.00323634
2	0	0	1	1	6.1761	-1.28783	-1.28761	-3.16602	2	-0.00474621	38	1.5624	0.00407659
2	0	0	1	1	6.2001	-1.29983	-1.2996	-4.02152	2	-0.00483209	38	1.5864	0.00522636
2	0	0	1	1	6.2241	-1.31184	-1.3116	-5.02912	2	-0.00494072	38	1.6104	0.00659618
2	0	0	1	1	6.2481	-1.32384	-1.32361	-6.10197	2	-0.00507444	38	1.6344	0.00807665
2	0	0	1	1	6.2721	-1.33584	-1.3356	-7.16294	2	-0.00523381	38	1.6584	0.00956682
2	0	0	1	1	6.2961	-1.34784	-1.34759	-8.18822	2	-0.00541819	38	1.6824	0.0110344
2	0	0	1	0	6.3139	-1.34324	-1.34301	-7.71119	3	-0.00556228	38	1.7002	0.0103562
2	0	0	1	0	6.3379	-1.33124	-1.33101	-6.43106	3	-0.00573189	38	1.7242	0.00855979
2	0	0	1	0	6.3619	-1.31924	-1.31899	-5.25688	3	-0.00587181	38	1.7482	0.00693375
2	0	0	1	0	6.3859	-1.30723	-1.30702	-4.24128	3	-0.00598547	38	1.7722	0.00554343
2	0	0	1	0	6.4099	-1.29523	-1.295	-3.37923	3	-0.00607648	38	1.7962	0.00437611
2	0	0	1	0	6.4339	-1.28323	-1.28301	-2.6652	3	-0.00614866	38	1.8202	0.00341947
2	0	0	1	0	6.4579	-1.27123	-1.27099	-2.10571	3	-0.0062056	38	1.8442	0.00267634
2	0	0	1	0	6.4819	-1.25923	-1.25902	-1.66228	3	-0.0062505	38	1.8682	0.00209284
2	0	0	1	0	6.5059	-1.24723	-1.24703	-1.31732	3	-0.00628601	38	1.8922	0.00164274
2	0	0	1	0	6.5299	-1.23523	-1.23498	-1.05316	3	-0.00631431	38	1.9162	0.00130063
2	0	0	1	0	6.5539	-1.22323	-1.223	-0.850396	3	-0.00633702	38	1.9402	0.00104003
2	0	0	1	0	6.5779	-1.21122	-1.211	-0.686435	3	-0.00635537	38	1.9642	0.000831272
2	0	0	1	0	6.6019	-1.19922	-1.199	-0.554991	3	-0.0063702	38	1.9882	0.000665433
2	0	0	1	0	6.6259	-1.18722	-1.187	-0.446165	3	-0.00638217	38	2.0122	0.0005296
2	0	0	1	0	6.6503	-1.17512	-1.1749	-0.35518	3	-0.00639189	38	2.0366	0.0004173
2	0	0	1	0	6.6743	-1.16312	-1.16289	-0.273964	3	-0.00639938	38	2.0606	0.000318591
2	0	0	1	0	6.6983	-1.15112	-1.15091	-0.200331	3	-0.00640503	38	2.0846	0.000230562
2	0	0	1	0	6.7223	-1.13912	-1.13889	-0.134513	3	-0.00640903	38	2.1086	0.000153196
2	0	0	1	0	6.7463	-1.12711	-1.12691	-0.0751513	3	-0.00641152	38	2.1326	8.46885e-05
2	0	0	1	0	6.7703	-1.11511	-1.11489	-0.0195067	3	-0.00641265	38	2.1566	2.17479e-05
2	1	0	1	0	6.7943	-1.10311	-1.10287	0.031338	3	-0.00641251	38	0.014	-3.45619e-05
2	1	0	1	0	6.8183	-1.09111	-1.0909	0.0760661	3	-0.00641122	38	0.038	-8.29803e-05
2	1	0	1	0	6.8423	-1.07911	-1.07888	0.119987	3	-0.00640887	38	0.062	-0.000129452
2	1	0	1	0	6.8663	-1.06711	-1.06689	0.165013	3	-0.00640544	38	0.086	-0.00017605
2	1	0	1	0	6.8903	-1.05511	-1.05486	0.210123	3	-0.00640094	38	0.11	-0.000221651
2	1	0	1	0	6.9143	-1.0431	-1.04289	0.265024	3	-0.00639523	38	0.134	-0.000276391
2	1	0	1	0	6.9383	-1.0311	-1.0309	0.330608	3	-0.00638807	38	0.158	-0.000340824
2	1	0	1	0	6.9623	-1.0191	-1.01888	0.412355	3	-0.00637918	38	0.182	-0.000420141
2	1	0	1	0	6.9863	-1.0071	-1.00688	0.497266	3	-0.00636828	38	0.206	-0.000500686
2	1	0	1	0	7.0103	-0.995099	-0.994871	0.584959	3	-0.00635526	38	0.23	-0.000581959
2	1	0	1	0	7.0343	-0.983097	-0.982867	0.649376	3	-0.00634038	38	0.254	-0.00063825
2	1	0	1	0	7.0583	-0.971096	-0.970896	0.669382	3	-0.00632449	38	0.278	-0.0006499
2	1	0	1	0	7.0823	-0.959095	-0.95886	0.666303	3	-0.00630845	38	0.302	-0.000638891
2	1	0	1	0	7.1063	-0.947093	-0.946868	0.658614	3	-0.00629255	38	0.326	-0.00062362
2	1	0	1	0	7.1303	-0.935092	-0.934881	0.668065	3	-0.00627664	38	0.35	-0.000624561
2	1	0	1	0	7.1543	-0.923091	-0.922871	0.680023	3	-0.00626047	38	0.374	-0.000627573
2	1	0	1	0	7.1783	-0.911089	-0.910881	0.702726	3	-0.00624388	38	0.398	-0.0006401
2	1	0	1	0	7.2023	-0.899088	-0.898873	0.727533	3	-0.00622672	38	0.422	-0.000653959
2	1	0	1	0	7.2263	-0.887086	-0.886886	0.756375	3	-0.00620893	38	0.446	-0.000670818
2	1	0	1	0	7.2503	-0.875085	-0.874871	0.782519	3	-0.00619045	38	0.47	-0.000684603
2	1	0	1	0	7.2743	-0.863084	-0.862863	0.804607	3	-0.00617138	38	0.494	-0.000694266
2	1	0	1	0	7.2983	-0.851082	-0.850877	0.817456	3	-0.00615188	38	0.518	-0.000695554
2	1	0	1	0	7.3223	-0.839081	-0.838865	0.818816	3	-0.0061322	38	0.542	-0.000686876
2	1	0	1	0	7.3463	-0.82708	-0.826856	0.816055	3	-0.00611256	38	0.566	-0.000674759
2	1	0	1	0	7.3703	-0.815078	-0.814868	0.802377	3	-0.00609314	38	0.59	-0.000653831
2	1	0	1	0	7.3943	-0.803077	-0.802861	0.78853	3	-0.00607407	38	0.614	-0.000633079
2	1	0	1	0	7.4183	-0.791075	-0.790845	0.765082	3	-0.00605545	38	0.638	-0.000605061
2	1	0	1	0	7.4423	-0.779074	-0.778821	0.746435	3	-0.00603732	38	0.662	-0.000581339
2	1	0	1	0	7.4663	-0.767073	-0.766847	0.724411	3	-0.00601967	38	0.686	-0.000555512
2	1	0	1	0	7.4903	-0.755071	-0.754843	0.705636	3	-0.0060025	38	0.71	-0.000532644
2	1	0	1	0	7.5143	-0.74307	-0.742844	0.69096	3	-0.00598576	38	0.734	-0.000513275
2	1	0	1	0	7.5383	-0.731069	-0.730826	0.672993	3	-0.00596941	38	0.758	-0.00049184
2	1	0	1	0	7.5623	-0.719067	-0.718838	0.659761	3	-0.00595343	38	0.782	-0.000474261
2	1	0	1	0	7.5863	-0.707066	-0.706858	0.647103	3	-0.00593776	38	0.806	-0.00045741
2	1	0	1	0	7.6103	-0.695065	-0.694848	0.63487	3	-0.0059224	38	0.83	-0.000441138
2	1	0	1	0	7.6343	-0.683063	-0.682842	0.622063	3	-0.00590731	38	0.854	-0.000424771
2	1	0	1	0	7.6583	-0.671062	-0.670834	0.614842	3	-0.00589247	38	0.878	-0.000412457
2	1	0	1	0	7.6823	-0.65906	-0.65884	0.60486	3	-0.00587784	38	0.902	-0.000398506
2	1	0	1	0	7.7063	-0.647059	-0.646835	0.59715	3	-0.0058634	38	0.926	-0.000386258
2	1	0	1	0	7.7303	-0.635058	-0.63483	0.591798	3	-0.0058491	38	0.95	-0.000375691
2	1	0	1	0	7.7543	-0.623056	-0.622821	0.588379	3	-0.00583494	38	0.974	-0.000366455
2	1	0	1	0	7.7783	-0.611055	-0.610813	0.585278	3	-0.00582086	38	0.998	-0.000357495
2	1	0	1	0	7.8023	-0.599054	-0.598824	0.580797	3	-0.00580686	38	1.022	-0.000347795
2	1	0	1	0	7.8263	-0.587052	-0.586813	0.581625	3	-0.00579289	38	1.046	-0.000341305
2	1	0	1	0	7.8503	-0.575051	-0.574822	0.581689	3	-0.00577893	38	1.07	-0.000334367
2	1	0	1	0	7.8743	-0.563049	-0.562818	0.581009	3	-0.005765	38	1.094	-0.000327003
2	1	0	1	0	7.8983	-0.551048	-0.550798	0.580351	3	-0.00575107	38	1.118	-0.000319656
2	1	0	1	0	7.9223	-0.539047	-0.538828	0.579161	3	-0.00573715	38	1.142	-0.000312068
2	1	0	1	0	7.9463	-0.527045	-0.5268	0.577781	3	-0.00572325	38	1.166	-0.000304375
2	1	0	1	0	7.9703	-0.515044	-0.514817	0.576613	3	-0.00570938	38	1.19	-0.00029685
2	1	0	1	0	7.9943	-0.503043	-0.502807	0.573321	3	-0.00569558	38	1.214	-0.00028827
2	1	0	1	0	8.0183	-0.491041	-0.490822	0.567289	3	-0.00568188	38	1.238	-0.000278438
2	1	0	1	0	8.0423	-0.47904	-0.478812	0.558348	3	-0.00566834	38	1.262	-0.000267344
2	1	0	1	0	8.0663	-0.467038	-0.466808	0.552443	3	-0.00565499	38	1.286	-0.000257885
2	1	0	1	0	8.0903	-0.455037	-0.454816	0.541888	3	-0.00564187	38	1.31	-0.00024646
2	1	0	1	0	8.1143	-0.443036	-0.44281	0.528444	3	-0.00562902	38	1.334	-0.000234
2	1	0	1	0	8.1383	-0.431034	-0.430798	0.513683	3	-0.00561652	38	1.358	-0.000221294
2	1	0	1	0	8.1623	-0.419033	-0.4188	0.499942	3	-0.00560435	38	1.382	-0.000209376
2	1	0	1	0	8.1863	-0.407032	-0.406808	0.486073	3	-0.00559252	38	1.406	-0.000197738
2	1	0	1	0	8.2103	-0.39503	-0.394805	0.472077	3	-0.005581	38	1.43	-0.000186378
2	1	0	1	0	8.2343	-0.383029	-0.382805	0.461097	3	-0.00556978	38	1.454	-0.00017651
2	1	0	1	0	8.2583	-0.371028	-0.370789	0.449862	3	-0.00555884	38	1.478	-0.000166804
2	1	0	1	0	8.2823	-0.359026	-0.358789	0.440305	3	-0.00554814	38	1.502	-0.000157977
2	1	0	1	0	8.3063	-0.347025	-0.346805	0.429473	3	-0.00553769	38	1.526	-0.000148943
2	1	0	1	0	8.3303	-0.335023	-0.334794	0.422464	3	-0.00552747	38	1.55	-0.000141439
2	1	0	1	0	8.3543	-0.323022	-0.322817	0.413757	3	-0.00551745	38	1.574	-0.000133568
2	1	0	1	0	8.3783	-0.311021	-0.310793	0.404327	3	-0.00550765	38	1.598	-0.000125662
2	1	0	0	0	8.4004	-0.300069	-0.299911	0.40027	3	-0.00549878	38	1.6201	-0.000120045
2	1	0	1	0	8.4201	-0.309621	-0.309406	0.314021	3	-0.00549208	38	1.6398	-9.716e-05
2	1	0	1	0	8.4441	-0.321622	-0.321394	0.266999	3	-0.00548513	38	1.6638	-8.58119e-05
2	1	0	1	0	8.4681	-0.333623	-0.333381	0.229365	3	-0.0054792	38	1.6878	-7.64659e-05
2	1	0	1	0	8.4921	-0.345625	-0.34539	0.198675	3	-0.00547407	38	1.7118	-6.86205e-05
2	1	0	1	0	8.5161	-0.357626	-0.357389	0.175207	3	-0.00546959	38	1.7358	-6.2617e-05
2	1	0	1	0	8.5401	-0.369627	-0.36939	0.154903	3	-0.00546566	38	1.7598	-5.72196e-05
2	1	0	1	0	8.5641	-0.381629	-0.381386	0.134748	3	-0.00546219	38	1.7838	-5.13909e-05
2	1	0	1	0	8.5881	-0.39363	-0.393403	0.118649	3	-0.00545914	38	1.8078	-4.66769e-05
2	1	0	1	0	8.6121	-0.405631	-0.405401	0.106373	3	-0.00545646	38	1.8318	-4.31238e-05
2	1	0	1	0	8.6361	-0.417633	-0.417403	0.0933966	3	-0.00545408	38	1.8558	-3.89841e-05
2	1	0	1	0	8.6601	-0.429634	-0.429414	0.0826713	3	-0.00545198	38	1.8798	-3.55002e-05
2	1	0	1	0	8.6841	-0.441636	-0.441418	0.0719459	3	-0.00545012	38	1.9038	-3.17582e-05
2	1	0	1	0	8.7081	-0.453637	-0.453412	0.0644912	3	-0.00544848	38	1.9278	-2.92411e-05
2	1	0	1	0	8.7321	-0.465638	-0.46541	0.0549976	3	-0.00544705	38	1.9518	-2.55964e-05
2	1	0	1	0	8.7561	-0.47764	-0.477426	0.0461412	3	-0.00544582	38	1.9758	-2.2029e-05
2	1	0	1	0	8.7801	-0.489641	-0.489396	0.0430829	3	-0.00544475	38	1.9998	-2.10846e-05
2	1	0	1	0	8.8041	-0.501642	-0.501437	0.0340565	3	-0.00544383	38	2.0238	-1.70772e-05
2	1	0	1	0	8.8281	-0.513644	-0.513412	0.0299151	3	-0.00544306	38	2.0478	-1.53587e-05
2	1	0	1	0	8.8521	-0.525645	-0.525416	0.0241807	3	-0.00544241	38	2.0718	-1.27049e-05
2	1	0	1	0	8.8761	-0.537647	-0.537414	0.0188923	3	-0.00544189	38	2.0958	-1.0153e-05
2	1	0	1	0	8.9001	-0.549648	-0.549419	0.0165561	3	-0.00544147	38	2.1198	-9.09625e-06
2	1	0	1	0	8.9241	-0.561649	-0.561415	0.0105032	3	-0.00544116	38	2.1438	-5.89664e-06
2	1	0	1	0	8.9481	-0.573651	-0.573411	0.00712626	3	-0.00544095	38	2.1678	-4.08627e-06
2	1	0	1	0	8.9721	-0.585652	-0.585434	0.00202904	3	-0.00544084	38	2.1918	-1.18787e-06
2	1	0	1	0	8.9961	-0.597653	-0.597405	0.00039368	3	-0.00544081	38	0.000000000000000E+000	-2.35186e-07
2	0	0	1	0	9.0201	-0.609655	-0.609406	-0.00561679	3	-0.00544087	38	0.02	3.4229e-06
2	0	0	1	0	9.0441	-0.621656	-0.621432	-0.00542565	3	-0.005441	38	0.044	3.37167e-06
2	0	0	1	0	9.0681	-0.633658	-0.633419	-0.0105866	3	-0.00544121	38	0.068	6.70574e-06
2	0	0	1	0	9.0921	-0.645659	-0.645435	-0.0124556	3	-0.00544151	38	0.092	8.03925e-06
2	0	0	1	0	9.1161	-0.65766	-0.657431	-0.0171705	3	-0.00544187	38	0.116	1.12884e-05
2	0	0	1	0	9.1401	-0.669662	-0.669411	-0.0209722	3	-0.00544231	38	0.14	1.4039e-05
2	0	0	1	0	9.1641	-0.681663	-0.681414	-0.0233933	3	-0.00544283	38	0.164	1.59405e-05
2	0	0	1	0	9.1881	-0.693664	-0.693435	-0.0267065	3	-0.00544345	38	0.188	1.85192e-05
2	0	0	1	0	9.2121	-0.705666	-0.705434	-0.030487	3	-0.00544415	38	0.212	2.15065e-05
2	0	0	1	0	9.2361	-0.717667	-0.717444	-0.035478	3	-0.00544494	38	0.236	2.54535e-05
2	0	0	1	0	9.2601	-0.729669	-0.729426	-0.0395345	3	-0.00544585	38	0.26	2.88375e-05
2	0	0	1	0	9.2841	-0.74167	-0.741435	-0.0459061	3	-0.00544689	38	0.284	3.40363e-05
2	0	0	1	0	9.3081	-0.753671	-0.753431	-0.0526599	3	-0.00544809	38	0.308	3.96756e-05
2	0	0	1	0	9.3321	-0.765673	-0.765424	-0.061941	3	-0.00544947	38	0.332	4.74111e-05
2	0	0	1	0	9.3561	-0.777674	-0.777436	-0.0740045	3	-0.0054511	38	0.356	5.75338e-05
2	0	0	1	0	9.3801	-0.789675	-0.78944	-0.0865776	3	-0.00545302	38	0.38	6.83478e-05
2	0	0	1	0	9.4041	-0.801677	-0.801437	-0.105777	3	-0.00545533	38	0.404	8.47737e-05
2	0	0	1	0	9.4281	-0.813678	-0.813461	-0.123065	3	-0.00545808	38	0.428	0.000100109
2	0	0	1	0	9.4521	-0.825679	-0.82547	-0.150399	3	-0.00546138	38	0.452	0.00012415
2	0	0	1	0	9.4761	-0.837681	-0.837481	-0.176013	3	-0.00546529	38	0.476	0.000147407
2	0	0	1	0	9.5001	-0.849682	-0.849448	-0.206001	3	-0.00546986	38	0.5	0.000174987
2	0	0	1	0	9.5241	-0.861684	-0.861471	-0.23359	3	-0.00547512	38	0.524	0.000201231
2	0	0	1	0	9.5481	-0.873685	-0.87347	-0.25674	3	-0.00548103	38	0.548	0.000224254
2	0	0	1	0	9.5721	-0.885686	-0.885485	-0.278488	3	-0.00548747	38	0.572	0.000246597
2	0	0	1	0	9.5961	-0.897688	-0.897469	-0.288704	3	-0.00549428	38	0.596	0.000259103
2	0	0	1	0	9.6201	-0.909689	-0.909453	-0.298027	3	-0.00550132	38	0.62	0.000271042
2	0	0	1	0	9.6441	-0.92169	-0.921469	-0.297942	3	-0.00550848	38	0.644	0.000274545
2	0	0	1	0	9.6681	-0.933692	-0.933471	-0.29824	3	-0.00551564	38	0.668	0.000278398
2	0	0	1	0	9.6921	-0.945693	-0.945491	-0.297093	3	-0.00552279	38	0.692	0.000280899
2	0	0	1	0	9.7161	-0.957694	-0.957469	-0.294374	3	-0.00552987	38	0.716	0.000281854
2	0	0	1	0	9.7401	-0.969696	-0.969473	-0.29739	3	-0.00553696	38	0.74	0.000288311
2	0	0	1	0	9.7641	-0.981697	-0.981475	-0.299259	3	-0.00554409	38	0.764	0.000293715
2	0	0	1	0	9.7881	-0.993699	-0.993462	-0.309177	3	-0.00555138	38	0.788	0.000307156
2	0	0	1	0	9.8121	-1.0057	-1.00548	-0.32122	3	-0.00555893	38	0.812	0.00032298
2	0	0	1	0	9.8361	-1.0177	-1.01748	-0.343647	3	-0.00556689	38	0.836	0.000349653
2	0	0	1	0	9.8601	-1.0297	-1.02949	-0.369792	3	-0.00557542	38	0.86	0.000380697
2	0	0	1	0	9.8841	-1.0417	-1.0415	-0.400991	3	-0.00558466	38	0.884	0.000417631
2	0	0	1	0	9.9081	-1.05371	-1.05348	-0.443213	3	-0.00559479	38	0.908	0.000466918
2	0	0	1	0	9.9321	-1.06571	-1.06549	-0.488982	3	-0.00560596	38	0.932	0.000521006
2	0	0	1	0	9.9561	-1.07771	-1.07748	-0.542481	3	-0.00561831	38	0.956	0.000584514
2	0	0	1	0	9.9801	-1.08971	-1.08948	-0.602182	3	-0.00563203	38	0.98	0.000656067
2	0	0	1	0	10.0041	-1.10171	-1.10148	-0.684035	3	-0.00564742	38	1.004	0.000753451
2	0	0	1	0	10.0281	-1.11371	-1.11348	-0.813058	3	-0.00566527	38	1.028	0.000905326
2	0	0	1	0	10.0521	-1.12571	-1.12549	-1.01555	3	-0.00568709	38	1.052	0.00114298
2	0	0	1	0	10.0761	-1.13772	-1.13747	-1.25586	3	-0.00571441	38	1.076	0.0014285
2	0	0	1	0	10.1001	-1.14972	-1.14949	-1.44148	3	-0.00574694	38	1.1	0.00165697
2	0	0	1	0	10.1241	-1.16172	-1.16149	-1.57163	3	-0.0057832	38	1.124	0.00182544
2	0	0	1	0	10.1481	-1.17372	-1.17348	-1.70698	3	-0.00582248	38	1.148	0.00200312
2	0	0	1	0	10.1725	-1.18582	-1.18559	-1.84807	3	-0.00586591	38	1.1724	0.00219105
2	0	0	1	0	10.1965	-1.19782	-1.19759	-1.94823	3	-0.00591154	38	1.1964	0.00233319
2	0	0	1	0	10.2205	-1.20982	-1.20961	-2.01216	3	-0.00595925	38	1.2204	0.00243392
2	0	0	1	0	10.2445	-1.22182	-1.2216	-1.97161	3	-0.00600719	38	1.2444	0.00240853
2	0	0	1	0	10.2685	-1.23383	-1.23358	-1.88471	3	-0.00605346	38	1.2684	0.00232494
2	0	0	1	0	10.2925	-1.24583	-1.24559	-1.82658	3	-0.0060979	38	1.2924	0.00227517
2	0	0	1	0	10.3165	-1.25783	-1.25759	-1.82783	3	-0.00614154	38	1.3164	0.00229867
2	0	0	1	0	10.3405	-1.26983	-1.26961	-1.94507	3	-0.00618657	38	1.3404	0.00246947
2	0	0	1	0	10.3645	-1.28183	-1.28161	-2.15053	3	-0.00623555	38	1.3644	0.00275614
2	0	0	1	0	10.3885	-1.29383	-1.29358	-2.4622	3	-0.00629074	38	1.3884	0.00318506
2	0	0	1	0	10.4125	-1.30583	-1.30559	-2.89406	3	-0.00635475	38	1.4124	0.00377847
2	0	0	1	0	10.4365	-1.31784	-1.31759	-3.45565	3	-0.00643072	38	1.4364	0.00455312
2	0	0	1	0	10.4605	-1.32984	-1.32959	-4.17593	3	-0.00652202	38	1.4604	0.00555226
2	0	0	1	0	10.4845	-1.34184	-1.3416	-5.00274	3	-0.00663203	38	1.4844	0.00671165
2	0	0	1	1	10.5023	-1.34924	-1.34902	-5.51677	4	-0.00672677	38	1.5022	0.00744226
2	0	0	1	1	10.5263	-1.33724	-1.337	-4.68599	4	-0.00684918	38	1.5262	0.00626518
2	0	0	1	1	10.5503	-1.32524	-1.32501	-3.86973	4	-0.00695165	38	1.5502	0.00512745
2	0	0	1	1	10.5743	-1.31324	-1.31299	-3.1588	4	-0.0070357	38	1.5742	0.00414748
2	0	0	1	1	10.5983	-1.30123	-1.301	-2.54917	4	-0.00710386	38	1.5982	0.00331648
2	0	0	1	1	10.6223	-1.28923	-1.28898	-2.05134	4	-0.00715882	38	1.6222	0.00264413
2	0	0	1	1	10.6463	-1.27723	-1.27701	-1.64458	4	-0.00720299	38	1.6462	0.00210015
2	0	0	1	1	10.6703	-1.26523	-1.26499	-1.32163	4	-0.00723839	38	1.6702	0.00167185
2	0	0	1	1	10.6943	-1.25323	-1.25299	-1.06367	4	-0.00726691	38	1.6942	0.00133277
2	0	0	1	1	10.7183	-1.24123	-1.24099	-0.864052	4	-0.00728997	38	1.7182	0.00107228
2	0	0	1	1	10.7423	-1.22923	-1.22898	-0.70761	4	-0.00730874	38	1.7422	0.000869642
2	0	0	1	1	10.7663	-1.21722	-1.21698	-0.579394	4	-0.00732412	38	1.7662	0.000705112
2	0	0	1	1	10.7903	-1.20522	-1.205	-0.477619	4	-0.00733673	38	1.7902	0.000575531
2	0	0	1	1	10.8143	-1.19322	-1.193	-0.388949	4	-0.00734708	38	1.8142	0.000464015
2	0	0	1	1	10.8383	-1.18122	-1.181	-0.31334	4	-0.00735549	38	1.8382	0.000370055
2	0	0	1	1	10.8627	-1.16912	-1.16892	-0.248605	4	-0.00736235	38	1.8626	0.000290599
2	0	0	1	1	10.8867	-1.15712	-1.15688	-0.192663	4	-0.00736764	38	1.8866	0.000222889
2	0	0	1	1	10.9107	-1.14512	-1.14489	-0.13772	4	-0.00737157	38	1.9106	0.000157674
2	0	0	1	1	10.9347	-1.13311	-1.1329	-0.0876395	4	-0.00737424	38	1.9346	9.92867e-05
2	0	0	1	1	10.9587	-1.12111	-1.12091	-0.0375594	4	-0.00737574	38	1.9586	4.21006e-05
2	1	0	1	1	10.9827	-1.10911	-1.10889	0.0073174	4	-0.00737615	38	0.000000000000000E+000	-8.1142e-06
2	1	0	1	1	11.0067	-1.09711	-1.09689	0.0432315	4	-0.00737554	38	0.024	-4.74202e-05
2	1	0	1	1	11.0307	-1.08511	-1.08488	0.0833084	4	-0.00737398	38	0.048	-9.03797e-05
2	1	0	1	1	11.0547	-1.07311	-1.0729	0.117247	4	-0.00737157	38	0.072	-0.000125794
2	1	0	1	1	11.0787	-1.06111	-1.06087	0.156708	4	-0.00736827	38	0.096	-0.000166248
2	1	0	1	1	11.1027	-1.0491	-1.04889	0.196042	4	-0.00736406	38	0.12	-0.000205627
2	1	0	1	1	11.1267	-1.0371	-1.0369	0.243382	4	-0.00735881	38	0.144	-0.000252364
2	1	0	1	1	11.1507	-1.0251	-1.02488	0.299473	4	-0.00735232	38	0.168	-0.000306925
2	1	0	1	1	11.1747	-1.0131	-1.01289	0.361765	4	-0.00734437	38	0.192	-0.000366428
2	1	0	1	1	11.1987	-1.0011	-1.0009	0.436715	4	-0.00733477	38	0.216	-0.000437107
2	1	0	1	1	11.2227	-0.989098	-0.98889	0.500324	4	-0.00732351	38	0.24	-0.000494766
2	1	0	1	1	11.2467	-0.977097	-0.976873	0.540741	4	-0.00731096	38	0.264	-0.000528235
2	1	0	1	1	11.2707	-0.965095	-0.964906	0.553293	4	-0.0072978	38	0.288	-0.000533876
2	1	0	1	1	11.2947	-0.953094	-0.952871	0.562638	4	-0.00728443	38	0.312	-0.000536122
2	1	0	1	1	11.3187	-0.941093	-0.940885	0.573002	4	-0.00727084	38	0.336	-0.000539129
2	1	0	1	1	11.3427	-0.929091	-0.928883	0.590736	4	-0.00725687	38	0.36	-0.000548725
2	1	0	1	1	11.3667	-0.91709	-0.916899	0.617624	4	-0.00724237	38	0.384	-0.000566299
2	1	0	1	1	11.3907	-0.905089	-0.904873	0.64791	4	-0.0072272	38	0.408	-0.000586276
2	1	0	1	1	11.4147	-0.893087	-0.892881	0.684759	4	-0.0072112	38	0.432	-0.000611408
2	1	0	1	1	11.4387	-0.881086	-0.880878	0.720099	4	-0.00719432	38	0.456	-0.00063432
2	1	0	1	1	11.4627	-0.869084	-0.868867	0.759518	4	-0.00717655	38	0.48	-0.00065992
2	1	0	1	1	11.4867	-0.857083	-0.856881	0.785769	4	-0.007158	38	0.504	-0.00067331
2	1	0	1	1	11.5107	-0.845082	-0.844869	0.804076	4	-0.00713887	38	0.528	-0.000679339
2	1	0	1	1	11.5347	-0.83308	-0.832883	0.812168	4	-0.00711946	38	0.552	-0.000676441
2	1	0	1	1	11.5587	-0.821079	-0.820862	0.807559	4	-0.00710001	38	0.576	-0.000662895
2	1	0	1	1	11.5827	-0.809078	-0.808866	0.797492	4	-0.00708074	38	0.6	-0.000645064
2	1	0	1	1	11.6067	-0.797076	-0.796856	0.777528	4	-0.00706184	38	0.624	-0.000619578
2	1	0	1	1	11.6307	-0.785075	-0.784848	0.757883	4	-0.0070434	38	0.648	-0.000594823
2	1	0	1	1	11.6547	-0.773073	-0.772849	0.735306	4	-0.00702548	38	0.672	-0.000568281
2	1	0	1	1	11.6787	-0.761072	-0.760856	0.713176	4	-0.00700809	38	0.696	-0.000542624
2	1	0	1	1	11.7027	-0.749071	-0.74884	0.692468	4	-0.00699123	38	0.72	-0.000518548
2	1	0	1	1	11.7267	-0.737069	-0.736859	0.671803	4	-0.00697488	38	0.744	-0.000495024
2	1	0	1	1	11.7507	-0.725068	-0.724842	0.653411	4	-0.00695899	38	0.768	-0.00047362
2	1	0	1	1	11.7747	-0.713067	-0.712854	0.636208	4	-0.0069435	38	0.792	-0.000453523
2	1	0	1	1	11.7987	-0.701065	-0.70085	0.623932	4	-0.0069284	38	0.816	-0.000437283
2	1	0	1	1	11.8227	-0.689064	-0.68887	0.608831	4	-0.00691365	38	0.84	-0.000419406
2	1	0	1	1	11.8467	-0.677062	-0.676853	0.597426	4	-0.00689921	38	0.864	-0.00040437
2	1	0	1	1	11.8707	-0.665061	-0.664848	0.585002	4	-0.00688504	38	0.888	-0.000388938
2	1	0	1	1	11.8947	-0.65306	-0.652851	0.575487	4	-0.00687111	38	0.912	-0.000375707
2	1	0	1	1	11.9187	-0.641058	-0.640839	0.567289	4	-0.0068574	38	0.936	-0.000363541
2	1	0	1	1	11.9427	-0.629057	-0.628839	0.561151	4	-0.00684388	38	0.96	-0.000352874
2	1	0	1	1	11.9667	-0.617056	-0.616833	0.555374	4	-0.0068305	38	0.984	-0.000342573
2	1	0	1	1	11.9907	-0.605054	-0.604828	0.548493	4	-0.00681726	38	1.008	-0.000331744
2	1	0	1	1	12.0147	-0.593053	-0.59284	0.545201	4	-0.00680414	38	1.032	-0.000323217
2	1	0	1	1	12.0387	-0.581052	-0.58083	0.541824	4	-0.00679111	38	1.056	-0.000314708
2	1	0	1	1	12.0627	-0.56905	-0.568832	0.539254	4	-0.00677814	38	1.08	-0.000306745
2	1	0	1	1	12.0867	-0.557049	-0.556837	0.537088	4	-0.00676522	38	1.104	-0.000299071
2	1	0	1	1	12.1107	-0.545047	-0.544825	0.535049	4	-0.00675237	38	1.128	-0.000291508
2	1	0	1	1	12.1347	-0.533046	-0.53282	0.530037	4	-0.00673961	38	1.152	-0.000282414
2	1	0	1	1	12.1587	-0.521045	-0.520821	0.526341	4	-0.00672693	38	1.176	-0.00027413
2	1	0	1	1	12.1827	-0.509043	-0.508822	0.522349	4	-0.00671435	38	1.2	-0.000265782
2	1	0	1	1	12.2067	-0.497042	-0.496801	0.517294	4	-0.00670191	38	1.224	-0.000256992
2	1	0	1	1	12.2307	-0.485041	-0.484833	0.508268	4	-0.00668963	38	1.248	-0.000246425
2	1	0	1	1	12.2547	-0.473039	-0.472804	0.498774	4	-0.00667754	38	1.272	-0.000235822
2	1	0	1	1	12.2787	-0.461038	-0.460821	0.489535	4	-0.00666566	38	1.296	-0.000225588
2	1	0	1	1	12.3027	-0.449036	-0.448809	0.479872	4	-0.00665404	38	1.32	-0.000215371
2	1	0	1	1	12.3267	-0.437035	-0.436814	0.468488	4	-0.00664267	38	1.344	-0.000204642
2	1	0	1	1	12.3507	-0.425034	-0.424813	0.458676	4	-0.00663155	38	1.368	-0.000194852
2	1	0	1	1	12.3747	-0.413032	-0.412812	0.44931	4	-0.00662067	38	1.392	-0.00018548
2	1	0	1	1	12.3987	-0.401031	-0.400822	0.440453	4	-0.00660999	38	1.416	-0.000176543
2	1	0	1	1	12.4227	-0.38903	-0.388803	0.431406	4	-0.00659953	38	1.44	-0.000167732
2	1	0	1	1	12.4467	-0.377028	-0.376823	0.424886	4	-0.00658928	38	1.464	-0.000160107
2	1	0	1	1	12.4707	-0.365027	-0.364804	0.414033	4	-0.00657925	38	1.488	-0.000151041
2	1	0	1	1	12.4947	-0.353025	-0.352824	0.406642	4	-0.00656939	38	1.512	-0.000143473
2	1	0	1	1	12.5187	-0.341024	-0.340803	0.400801	4	-0.0065597	38	1.536	-0.000136594
2	1	0	1	1	12.5427	-0.329023	-0.328829	0.39341	4	-0.00655017	38	1.56	-0.000129365
2	1	0	1	1	12.5667	-0.317021	-0.316806	0.389078	4	-0.00654078	38	1.584	-0.000123262
2	1	0	1	1	12.5907	-0.30502	-0.304803	0.383938	4	-0.00653151	38	1.608	-0.000117025
2	1	0	1	1	12.6085	-0.30362	-0.303403	0.331246	4	-0.006525	38	1.6258	-0.000100501
2	1	0	1	1	12.6325	-0.315621	-0.315397	0.283693	4	-0.00651766	38	1.6498	-8.9476e-05
2	1	0	1	1	12.6565	-0.327623	-0.327414	0.246058	4	-0.00651133	38	1.6738	-8.05628e-05
2	1	0	1	1	12.6805	-0.339624	-0.339416	0.217514	4	-0.00650577	38	1.6978	-7.38276e-05
2	1	0	1	1	12.7045	-0.351625	-0.351403	0.192134	4	-0.00650086	38	1.7218	-6.75165e-05
2	1	0	1	1	12.7285	-0.363627	-0.363393	0.174379	4	-0.00649649	38	1.7458	-6.3368e-05
2	1	0	1	1	12.7525	-0.375628	-0.3754	0.155009	4	-0.00649257	38	1.7698	-5.81905e-05
2	1	0	1	1	12.7765	-0.387629	-0.387414	0.13804	4	-0.00648906	38	1.7938	-5.34786e-05
2	1	0	1	1	12.8005	-0.399631	-0.399398	0.126359	4	-0.0064859	38	1.8178	-5.04674e-05
2	1	0	1	1	12.8245	-0.411632	-0.411399	0.112044	4	-0.00648307	38	1.8418	-4.60948e-05
2	1	0	1	1	12.8485	-0.423634	-0.423404	0.0996832	4	-0.00648053	38	1.8658	-4.22062e-05
2	1	0	1	1	12.8725	-0.435635	-0.435405	0.0917825	4	-0.00647823	38	1.8898	-3.99626e-05
2	1	0	1	1	12.8965	-0.447636	-0.447404	0.0835208	4	-0.00647614	38	1.9138	-3.73675e-05
2	1	0	1	1	12.9205	-0.459638	-0.459401	0.0743883	4	-0.00647427	38	1.9378	-3.4174e-05
2	1	0	1	1	12.9445	-0.471639	-0.471403	0.0673584	4	-0.00647258	38	1.9618	-3.17529e-05
2	1	0	1	1	12.9685	-0.48364	-0.483421	0.0590329	4	-0.00647107	38	1.9858	-2.85378e-05
2	1	0	1	1	12.9925	-0.495642	-0.495417	0.0515995	4	-0.00646973	38	2.0098	-2.55632e-05
2	1	0	1	1	13.0165	-0.507643	-0.507409	0.0458863	4	-0.00646853	38	2.0338	-2.32831e-05
2	1	0	1	1	13.0405	-0.519644	-0.519408	0.0415962	4	-0.00646749	38	2.0578	-2.16054e-05
2	1	0	1	1	13.0645	-0.531646	-0.531413	0.036414	4	-0.00646657	38	2.0818	-1.93509e-05
2	1	0	1	1	13.0885	-0.543647	-0.54341	0.0302124	4	-0.00646577	38	2.1058	-1.64177e-05
2	1	0	1	1	13.1125	-0.555649	-0.555427	0.0279187	4	-0.00646507	38	2.1298	-1.55068e-05
2	1	0	1	1	13.1365	-0.56765	-0.567393	0.0217808	4	-0.00646448	38	2.1538	-1.23582e-05
2	1	0	1	1	13.1605	-0.579651	-0.579428	0.0193171	4	-0.00646399	38	2.1778	-1.11929e-05
2	1	0	1	1	13.1845	-0.591653	-0.591431	0.0154305	4	-0.00646358	38	2.2018	-9.12607e-06
2	1	0	1	1	13.2085	-0.603654	-0.603429	0.00995096	4	-0.00646327	38	2.2258	-6.0047e-06
2	1	0	1	1	13.2325	-0.615656	-0.615433	0.00795455	4	-0.00646305	38	2.2498	-4.8955e-06
2	1	0	1	1	13.2565	-0.627657	-0.627435	0.00343077	4	-0.00646291	38	2.2738	-2.15259e-06
2	0	0	1	1	13.2805	-0.639658	-0.639435	0.00105207	4	-0.00646285	38	2.2978	-6.72733e-07
2	0	0	1	1	13.3045	-0.65166	-0.651425	-0.00187883	4	-0.00646287	38	0.004	1.22392e-06
2	0	0	1	1	13.3285	-0.663661	-0.663436	-0.00502212	4	-0.00646296	38	0.028	3.33185e-06
2	0	0	1	1	13.3525	-0.675662	-0.675426	-0.00867512	4	-0.00646314	38	0.052	5.8594e-06
2	0	0	1	1	13.3765	-0.687664	-0.687435	-0.0131139	4	-0.0064634	38	0.076	9.01498e-06
2	0	0	1	1	13.4005	-0.699665	-0.699444	-0.0177014	4	-0.00646376	38	0.1	1.23812e-05
2	0	0	1	1	13.4245	-0.711666	-0.711438	-0.0208235	4	-0.0064642	38	0.124	1.48146e-05
2	0	0	1	1	13.4485	-0.723668	-0.723428	-0.0239668	4	-0.00646475	38	0.148	1.73382e-05
2	0	0	1	1	13.4725	-0.735669	-0.73544	-0.0317188	4	-0.00646543	38	0.172	2.33273e-05
2	0	0	1	1	13.4965	-0.747671	-0.747426	-0.0376018	4	-0.00646628	38	0.196	2.81046e-05
2	0	0	1	1	13.5205	-0.759672	-0.759435	-0.0476901	4	-0.00646728	38	0.22	3.62175e-05
2	0	0	1	1	13.5445	-0.771673	-0.771432	-0.058288	4	-0.00646853	38	0.244	4.49653e-05
2	0	0	1	1	13.5685	-0.783675	-0.783426	-0.0720293	4	-0.00647004	38	0.268	5.64296e-05
2	0	0	1	1	13.5925	-0.795676	-0.795443	-0.0859617	4	-0.00647191	38	0.292	6.83776e-05
2	0	0	1	1	13.6165	-0.807677	-0.807427	-0.106584	4	-0.00647422	38	0.316	8.6059e-05
2	0	0	1	1	13.6405	-0.819679	-0.819457	-0.128969	4	-0.00647705	38	0.34	0.000105685
2	0	0	1	1	13.6645	-0.83168	-0.83146	-0.153457	4	-0.00648046	38	0.364	0.000127594
2	0	0	1	1	13.6885	-0.843682	-0.843448	-0.185612	4	-0.00648455	38	0.388	0.000156554
2	0	0	1	1	13.7125	-0.855683	-0.855457	-0.21199	4	-0.00648935	38	0.412	0.000181349
2	0	0	1	1	13.7365	-0.867684	-0.867466	-0.241214	4	-0.00649483	38	0.436	0.000209245
2	0	0	1	1	13.7605	-0.879686	-0.879459	-0.264619	4	-0.00650092	38	0.46	0.000232722
2	0	0	1	1	13.7845	-0.891687	-0.891475	-0.282205	4	-0.00650748	38	0.484	0.000251578
2	0	0	1	1	13.8085	-0.903688	-0.903477	-0.292951	4	-0.00651436	38	0.508	0.000264675
2	0	0	1	1	13.8325	-0.91569	-0.915495	-0.296137	4	-0.00652142	38	0.532	0.000271112
2	0	0	1	1	13.8565	-0.927691	-0.927463	-0.296647	4	-0.00652854	38	0.556	0.000275129
2	0	0	1	1	13.8805	-0.939692	-0.939481	-0.292548	4	-0.00653562	38	0.58	0.000274843
2	0	0	1	1	13.9045	-0.951694	-0.951461	-0.290445	4	-0.00654263	38	0.604	0.000276347
2	0	0	1	1	13.9285	-0.963695	-0.963483	-0.288534	4	-0.00654956	38	0.628	0.000277997
2	0	0	1	1	13.9525	-0.975697	-0.975475	-0.287918	4	-0.00655644	38	0.652	0.000280857
2	0	0	1	1	13.9765	-0.987698	-0.987488	-0.290063	4	-0.00656336	38	0.676	0.000286434
2	0	0	1	1	14.0005	-0.999699	-0.999456	-0.296817	4	-0.00657036	38	0.7	0.000296655
2	0	0	1	1	14.0245	-1.0117	-1.01149	-0.305333	4	-0.00657755	38	0.724	0.000308843
2	0	0	1	1	14.0485	-1.0237	-1.0235	-0.31969	4	-0.00658504	38	0.748	0.000327202
2	0	0	1	1	14.0725	-1.0357	-1.03547	-0.339824	4	-0.00659294	38	0.772	0.000351879
2	0	0	1	1	14.0965	-1.0477	-1.04747	-0.364971	4	-0.00660139	38	0.796	0.000382298
2	0	0	1	1	14.1205	-1.05971	-1.05947	-0.396127	4	-0.0066105	38	0.82	0.000419686
2	0	0	1	1	14.1445	-1.07171	-1.0715	-0.427178	4	-0.00662037	38	0.844	0.000457723
2	0	0	1	1	14.1685	-1.08371	-1.08349	-0.465683	4	-0.0066311	38	0.868	0.000504564
2	0	0	1	1	14.1925	-1.09571	-1.0955	-0.512301	4	-0.00664282	38	0.892	0.000561228
2	0	0	1	1	14.2165	-1.10771	-1.10748	-0.57538	4	-0.0066558	38	0.916	0.00063722
2	0	0	1	1	14.2405	-1.11971	-1.11951	-0.678216	4	-0.00667077	38	0.94	0.000759266
2	0	0	1	1	14.2645	-1.13171	-1.13152	-0.826163	4	-0.00668876	38	0.964	0.000934816
2	0	0	1	1	14.2885	-1.14372	-1.1435	-0.999957	4	-0.00671071	38	0.988	0.00114345
2	0	0	1	1	14.3125	-1.15572	-1.15549	-1.16428	4	-0.00673674	38	1.012	0.00134531
2	0	0	1	1	14.3365	-1.16772	-1.1675	-1.32182	4	-0.00676665	38	1.036	0.00154323
2	0	0	1	1	14.3609	-1.17982	-1.17959	-1.51565	4	-0.00680124	38	1.0604	0.00178784
2	0	0	1	1	14.3849	-1.19182	-1.19158	-1.74462	4	-0.00684035	38	1.0844	0.00207886
2	0	0	1	1	14.4089	-1.20382	-1.20359	-1.92871	4	-0.00688454	38	1.1084	0.00232138
2	0	0	1	1	14.4329	-1.21582	-1.21558	-1.99105	4	-0.00693182	38	1.1324	0.00242028
2	0	0	1	1	14.4569	-1.22783	-1.22758	-1.92389	4	-0.006979	38	1.1564	0.00236172
2	0	0	1	1	14.4809	-1.23983	-1.2396	-1.81914	4	-0.00702381	38	1.1804	0.00225501
2	0	0	1	1	14.5049	-1.25183	-1.25159	-1.75655	4	-0.00706655	38	1.2044	0.00219848
2	0	0	1	1	14.5289	-1.26383	-1.26358	-1.76411	4	-0.00710864	38	1.2284	0.0022291
2	0	0	1	1	14.5529	-1.27583	-1.2756	-1.86763	4	-0.00715207	38	1.2524	0.00238235
2	0	0	1	1	14.5769	-1.28783	-1.2876	-2.05332	4	-0.00719902	38	1.2764	0.00264385
2	0	0	1	1	14.6009	-1.29983	-1.29961	-2.32383	4	-0.00725133	38	1.3004	0.00302009
2	0	0	1	1	14.6249	-1.31184	-1.3116	-2.67845	4	-0.00731114	38	1.3244	0.00351305
2	0	0	1	1	14.6489	-1.32384	-1.3236	-3.13202	4	-0.00738069	38	1.3484	0.00414555
2	0	0	1	1	14.6729	-1.33584	-1.33558	-3.71083	4	-0.00746266	38	1.3724	0.00495612
2	0	0	1	1	14.6969	-1.34784	-1.3476	-4.39766	4	-0.00755989	38	1.3964	0.00592626
2	0	0	1	1	14.7012	-1.34999	-1.34975	-4.54084	4	-0.0075791	38	1.4007	0.00612902